frame,timestamp_iso,time_hms,raw_ax_g,raw_ay_g,raw_az_g,raw_gx_dps,raw_gy_dps,raw_gz_dps,raw_roll_deg,raw_pitch_deg,raw_yaw_deg,accel_lat_g,accel_lon_g,accel_vert_g,gyro_x_dps,gyro_y_dps,gyro_z_dps,pitch_deg,roll_deg,yaw_deg,mag_x,mag_y,mag_z,temp_c
0,2026-03-06T18:43:37.734000,18:43:37.734,1.33984,2.06719,-9.28799,-0.8545,4.7607,-6.4697,169.1,-5.2,171.3,1.33984,-2.06719,9.28799,-0.8545,-4.7607,-6.4697,-349.1,-5.2,171.3,-1644,1741,17990,26.07
1,2026-03-06T18:43:37.834000,18:43:37.834,1.62217,2.3543,-9.2832,-1.709,2.0142,-6.7139,168.6,-5.3,172.1,1.62217,-2.3543,9.2832,-1.709,-2.0142,-6.7139,-348.6,-5.3,172.1,-1571,1622,17782,26.07
2,2026-03-06T18:43:37.934000,18:43:37.934,1.41162,2.16289,-10.04404,-2.1973,0.2441,-6.6528,168.3,-5.6,172.8,1.41162,-2.16289,10.04404,-2.1973,-0.2441,-6.6528,-348.3,-5.6,172.8,-1582,1545,17784,26.19
3,2026-03-06T18:43:38.034000,18:43:38.034,1.15801,2.37822,-9.53682,2.2583,-2.6245,-6.0425,168.1,-5.6,173.5,1.15801,-2.37822,9.53682,2.2583,2.6245,-6.0425,-348.1,-5.6,173.5,-1611,1456,17772,26.19
4,2026-03-06T18:43:38.133000,18:43:38.133,1.03838,2.31123,-9.00088,-1.2207,0.4883,-5.8594,167.9,-5.4,174.0,1.03838,-2.31123,9.00088,-1.2207,-0.4883,-5.8594,-347.9,-5.4,174.0,-1549,1418,17802,25.94
5,2026-03-06T18:43:38.233000,18:43:38.233,1.04316,2.32559,-9.98184,-5.188,0.9766,-0.5493,167.7,-5.3,174.4,1.04316,-2.32559,9.98184,-5.188,-0.9766,-0.5493,-347.7,-5.3,174.4,-1500,1415,17801,26.32
6,2026-03-06T18:43:38.333000,18:43:38.333,1.69873,4.95264,-11.5418,-34.5459,-50.1099,6.958,167.3,-3.7,173.3,1.69873,-4.95264,11.5418,-34.5459,50.1099,6.958,-347.3,-3.7,173.3,-1355,1317,17755,26.19
7,2026-03-06T18:43:38.433000,18:43:38.433,1.17236,4.62725,-11.69492,-45.4102,-50.1709,-3.7842,160.1,0.5,171.1,1.17236,-4.62725,11.69492,-45.4102,50.1709,-3.7842,-340.1,0.5,171.1,-306,-136,17569,26.07
8,2026-03-06T18:43:38.533000,18:43:38.533,0.10049,2.80889,-7.91465,-118.042,19.165,-1.0376,149.2,1.4,171.4,0.10049,-2.80889,7.91465,-118.042,-19.165,-1.0376,-329.2,1.4,171.4,328,-2653,17003,25.94
9,2026-03-06T18:43:38.632000,18:43:38.632,-0.43545,4.18701,-7.00068,-98.0225,3.2349,-10.2539,141.1,1.2,172.6,-0.43545,-4.18701,7.00068,-98.0225,-3.2349,-10.2539,-321.1,1.2,172.6,-129,-5595,16138,26.26
10,2026-03-06T18:43:38.732000,18:43:38.732,-1.29678,5.42637,-5.81875,-62.0728,0.9766,-19.2871,135.1,1.9,174.0,-1.29678,-5.42637,5.81875,-62.0728,-0.9766,-19.2871,-315.1,1.9,174.0,-386,-8027,15166,26.19
11,2026-03-06T18:43:38.832000,18:43:38.832,-0.75605,6.32119,-4.92393,-45.8374,31.1279,-15.1367,129.9,2.2,175.8,-0.75605,-6.32119,4.92393,-45.8374,-31.1279,-15.1367,-309.9,2.2,175.8,-447,-9668,14189,26.19
12,2026-03-06T18:43:38.932000,18:43:38.932,-0.30146,7.71367,-6.55566,-8.5449,10.6812,3.9062,128.4,1.2,178.9,-0.30146,-7.71367,6.55566,-8.5449,-10.6812,3.9062,-308.4,1.2,178.9,-823,-10678,13440,26.19
13,2026-03-06T18:43:39.032000,18:43:39.032,-0.46416,7.66582,-6.30684,3.0518,12.7563,6.7139,128.0,0.9,179.2,-0.46416,-7.66582,6.30684,3.0518,-12.7563,6.7139,-308.0,0.9,179.2,-1082,-10984,13242,26.07
14,2026-03-06T18:43:39.131000,18:43:39.131,0.66035,7.44092,-6.52217,16.4185,5.5542,6.0425,129.2,-0.2,179.7,0.66035,-7.44092,6.52217,16.4185,-5.5542,6.0425,-309.2,-0.2,179.7,-1466,-10872,13303,26.19
15,2026-03-06T18:43:39.231000,18:43:39.231,-0.06699,8.03906,-6.92412,-1.5869,2.7466,6.6528,129.9,-0.7,179.7,-0.06699,-8.03906,6.92412,-1.5869,-2.7466,6.6528,-309.9,-0.7,179.7,-1649,-10543,13564,26.19
16,2026-03-06T18:43:39.331000,18:43:39.331,-0.20576,7.929,-5.7709,-13.3667,7.4463,0.6714,129.6,-2.0,-179.9,-0.20576,-7.929,5.7709,-13.3667,-7.4463,0.6714,-309.6,-2.0,-179.9,-1899,-10406,13619,26.13
17,2026-03-06T18:43:39.431000,18:43:39.431,0.33018,7.4457,-5.61777,0.6714,3.1738,-7.3853,128.8,-1.4,-179.4,0.33018,-7.4457,5.61777,0.6714,-3.1738,-7.3853,-308.8,-1.4,-179.4,-2027,-10603,13431,26.07
18,2026-03-06T18:43:39.531000,18:43:39.531,1.03838,7.39307,-6.54131,17.9443,-1.709,-3.9062,129.5,-0.8,-179.1,1.03838,-7.39307,6.54131,17.9443,1.709,-3.9062,-309.5,-0.8,-179.1,-1880,-10656,13436,26.13
19,2026-03-06T18:43:39.631000,18:43:39.631,-0.24883,6.81406,-6.43604,3.6621,3.6011,1.4038,130.4,-1.7,-178.7,-0.24883,-6.81406,6.43604,3.6621,-3.6011,1.4038,-310.4,-1.7,-178.7,-1916,-10489,13589,26.19
20,2026-03-06T18:43:39.730000,18:43:39.730,-0.09092,6.84277,-6.69443,10.3149,3.479,-4.5166,131.4,-2.1,-178.1,-0.09092,-6.84277,6.69443,10.3149,-3.479,-4.5166,-311.4,-2.1,-178.1,-2069,-10362,13750,26.13
21,2026-03-06T18:43:39.830000,18:43:39.830,0.58857,7.11074,-6.79492,11.4746,-8.9722,-10.6201,132.6,-0.8,-177.9,0.58857,-7.11074,6.79492,11.4746,8.9722,-10.6201,-312.6,-0.8,-177.9,-1916,-10090,13937,26.13
22,2026-03-06T18:43:39.930000,18:43:39.930,0.0335,7.43135,-6.70879,-3.1738,-2.2583,1.3428,131.9,-0.8,-177.5,0.0335,-7.43135,6.70879,-3.1738,2.2583,1.3428,-311.9,-0.8,-177.5,-1677,-10011,14008,26.19
23,2026-03-06T18:43:40.030000,18:43:40.030,0.38281,7.59883,-5.87617,-11.5356,-0.3662,-5.4932,131.2,-0.5,-177.4,0.38281,-7.59883,5.87617,-11.5356,0.3662,-5.4932,-311.2,-0.5,-177.4,-1611,-10124,13964,26.26
24,2026-03-06T18:43:40.130000,18:43:40.130,0.01436,7.57969,-6.38818,2.8076,6.6528,1.4648,131.4,-0.3,-177.1,0.01436,-7.57969,6.38818,2.8076,-6.6528,1.4648,-311.4,-0.3,-177.1,-1485,-10219,13890,26.07
25,2026-03-06T18:43:40.229000,18:43:40.229,-0.24883,7.32129,-5.97666,12.3291,6.0425,0.1831,132.0,-1.0,-176.8,-0.24883,-7.32129,5.97666,12.3291,-6.0425,0.1831,-312.0,-1.0,-176.8,-1606,-10151,13918,26.19
26,2026-03-06T18:43:40.329000,18:43:40.329,0.10049,7.13945,-6.88105,19.9585,0.7324,-4.8828,132.7,-0.2,-176.7,0.10049,-7.13945,6.88105,19.9585,-0.7324,-4.8828,-312.7,-0.2,-176.7,-1538,-10002,14094,26.26
27,2026-03-06T18:43:40.429000,18:43:40.429,-0.0957,6.88105,-6.5748,0.1831,1.6479,2.5024,133.5,-0.6,-176.3,-0.0957,-6.88105,6.5748,0.1831,-1.6479,2.5024,-313.5,-0.6,-176.3,-1459,-9698,14299,26.13
28,2026-03-06T18:43:40.529000,18:43:40.529,-0.62686,5.479,-5.45986,65.4907,-5.7983,4.0283,135.8,-0.5,-176.8,-0.62686,-5.479,5.45986,65.4907,5.7983,4.0283,-315.8,-0.5,-176.8,-1463,-9472,14458,26.26
29,2026-03-06T18:43:40.629000,18:43:40.629,-0.34453,4.27314,-5.91445,129.9438,-22.2168,9.5825,144.8,0.1,-177.6,-0.34453,-4.27314,5.91445,129.9438,22.2168,9.5825,-324.8,0.1,-177.6,-1287,-7839,15511,26.19
30,2026-03-06T18:43:40.728000,18:43:40.728,0.15313,4.41191,-9.80957,98.2666,-16.4185,13.0615,156.1,0.5,-179.4,0.15313,-4.41191,9.80957,98.2666,16.4185,13.0615,-336.1,0.5,-179.4,-818,-4650,16941,26.0
31,2026-03-06T18:43:40.828000,18:43:40.828,0.65078,3.74199,-11.08721,31.0059,35.3394,7.5684,162.8,-0.2,179.3,0.65078,-3.74199,11.08721,31.0059,-35.3394,7.5684,-342.8,-0.2,179.3,-306,-1841,17782,26.07
32,2026-03-06T18:43:40.928000,18:43:40.928,1.38291,1.85664,-9.41719,37.5977,26.4893,2.9907,165.0,-4.1,179.4,1.38291,-1.85664,9.41719,37.5977,-26.4893,2.9907,-345.0,-4.1,179.4,-831,-513,18157,26.26
33,2026-03-06T18:43:41.028000,18:43:41.028,1.12451,2.50742,-11.04893,-10.2539,-20.6909,-21.3013,166.8,-2.7,-179.5,1.12451,-2.50742,11.04893,-10.2539,20.6909,-21.3013,-346.8,-2.7,-179.5,-1040,430,18325,26.19
34,2026-03-06T18:43:41.128000,18:43:41.128,0.15313,1.9332,-8.79512,10.7422,-8.0566,-8.5449,166.2,-1.7,-178.7,0.15313,-1.9332,8.79512,10.7422,8.0566,-8.5449,-346.2,-1.7,-178.7,-443,445,18321,26.26
35,2026-03-06T18:43:41.227000,18:43:41.227,0.39717,2.39736,-11.35039,-7.2632,7.6294,-2.5635,166.3,-0.9,-178.2,0.39717,-2.39736,11.35039,-7.2632,-7.6294,-2.5635,-346.3,-0.9,-178.2,86,581,18454,26.19
36,2026-03-06T18:43:41.327000,18:43:41.327,0.58379,2.07676,-9.55596,-1.6479,16.8457,1.8921,166.1,-2.4,-177.7,0.58379,-2.07676,9.55596,-1.6479,-16.8457,1.8921,-346.1,-2.4,-177.7,31,447,18438,26.19
37,2026-03-06T18:43:41.427000,18:43:41.427,0.646,2.07676,-9.87656,2.3193,2.7466,-4.5166,166.2,-3.6,-177.2,0.646,-2.07676,9.87656,2.3193,-2.7466,-4.5166,-346.2,-3.6,-177.2,-351,364,18414,26.26
38,2026-03-06T18:43:41.527000,18:43:41.527,0.39717,1.9332,-9.5751,3.9062,2.7466,-5.8594,166.6,-3.7,-176.6,0.39717,-1.9332,9.5751,3.9062,-2.7466,-5.8594,-346.6,-3.7,-176.6,-518,405,18380,26.19
39,2026-03-06T18:43:41.627000,18:43:41.627,0.71777,1.82314,-9.77607,-1.709,4.9438,-5.3101,166.8,-3.7,-175.9,0.71777,-1.82314,9.77607,-1.709,-4.9438,-5.3101,-346.8,-3.7,-175.9,-534,482,18406,25.94
40,2026-03-06T18:43:41.726000,18:43:41.726,1.21543,1.93799,-9.81436,-1.77,4.1504,-2.1362,166.8,-4.3,-175.5,1.21543,-1.93799,9.81436,-1.77,-4.1504,-2.1362,-346.8,-4.3,-175.5,-629,499,18366,26.07
41,2026-03-06T18:43:41.826000,18:43:41.826,0.62207,1.83271,-9.44111,-0.4272,-0.3662,-5.9814,167.0,-4.4,-175.1,0.62207,-1.83271,9.44111,-0.4272,0.3662,-5.9814,-347.0,-4.4,-175.1,-709,510,18379,26.19
42,2026-03-06T18:43:41.926000,18:43:41.926,0.56465,1.94756,-9.92441,-0.9155,3.479,-5.8594,167.1,-4.7,-174.4,0.56465,-1.94756,9.92441,-0.9155,-3.479,-5.8594,-347.1,-4.7,-174.4,-775,546,18396,26.19
43,2026-03-06T18:43:42.026000,18:43:42.026,1.27285,1.81357,-9.59424,2.0752,5.4932,-2.5635,166.9,-5.0,-174.0,1.27285,-1.81357,9.59424,2.0752,-5.4932,-2.5635,-346.9,-5.0,-174.0,-845,491,18354,26.19
44,2026-03-06T18:43:42.126000,18:43:42.126,0.72734,1.76572,-9.31191,2.9907,-2.0752,-3.418,167.3,-4.8,-173.6,0.72734,-1.76572,9.31191,2.9907,2.0752,-3.418,-347.3,-4.8,-173.6,-892,516,18310,26.19
45,2026-03-06T18:43:42.226000,18:43:42.226,0.62207,1.81357,-9.5416,-1.709,-3.3569,-3.6011,167.6,-4.6,-173.3,0.62207,-1.81357,9.5416,-1.709,3.3569,-3.6011,-347.6,-4.6,-173.3,-776,568,18324,26.32
46,2026-03-06T18:43:42.325000,18:43:42.325,1.225,1.86621,-9.48896,0.9766,0.1221,-2.2583,167.6,-4.7,-173.0,1.225,-1.86621,9.48896,0.9766,-0.1221,-2.2583,-347.6,-4.7,-173.0,-717,560,18345,26.13
47,2026-03-06T18:43:42.425000,18:43:42.425,0.82783,1.70352,-9.74258,1.5259,2.1362,-4.0894,167.8,-4.7,-172.7,0.82783,-1.70352,9.74258,1.5259,-2.1362,-4.0894,-347.8,-4.7,-172.7,-697,569,18333,26.26
48,2026-03-06T18:43:42.525000,18:43:42.525,0.66992,1.79443,-9.39326,-0.061,3.0518,-3.1128,167.8,-4.6,-172.3,0.66992,-1.79443,9.39326,-0.061,-3.0518,-3.1128,-347.8,-4.6,-172.3,-638,571,18357,26.26
49,2026-03-06T18:43:42.625000,18:43:42.625,1.07666,1.88535,-9.36934,-3.418,1.4038,-2.9297,167.7,-4.6,-172.0,1.07666,-1.88535,9.36934,-3.418,-1.4038,-2.9297,-347.7,-4.6,-172.0,-598,527,18283,26.19
50,2026-03-06T18:43:42.725000,18:43:42.725,1.29678,1.804,-9.67559,-0.3052,2.4414,-4.0894,167.6,-4.8,-171.4,1.29678,-1.804,9.67559,-0.3052,-2.4414,-4.0894,-347.6,-4.8,-171.4,-581,442,18285,26.32
51,2026-03-06T18:43:42.825000,18:43:42.825,0.58857,1.73701,-10.06797,2.4414,-2.1362,-4.5166,168.0,-4.9,-171.0,0.58857,-1.73701,10.06797,2.4414,2.1362,-4.5166,-348.0,-4.9,-171.0,-605,484,18311,26.38
52,2026-03-06T18:43:42.925000,18:43:42.925,0.47852,1.95713,-9.23535,-1.6479,2.6245,-2.3193,167.8,-4.5,-170.7,0.47852,-1.95713,9.23535,-1.6479,-2.6245,-2.3193,-347.8,-4.5,-170.7,-544,487,18277,26.26
53,2026-03-06T18:43:43.024000,18:43:43.024,1.23936,1.72744,-9.51768,-5.0049,-0.4272,-2.9907,167.7,-4.7,-170.4,1.23936,-1.72744,9.51768,-5.0049,0.4272,-2.9907,-347.7,-4.7,-170.4,-527,458,18289,26.26
54,2026-03-06T18:43:43.124000,18:43:43.124,1.05273,1.75137,-9.22578,6.3477,-4.3945,-4.5776,167.9,-4.8,-170.0,1.05273,-1.75137,9.22578,6.3477,4.3945,-4.5776,-347.9,-4.8,-170.0,-569,401,18296,26.26
55,2026-03-06T18:43:43.224000,18:43:43.224,0.3541,1.78008,-9.85742,6.3477,0.1221,-6.2866,168.4,-4.6,-169.6,0.3541,-1.78008,9.85742,6.3477,-0.1221,-6.2866,-348.4,-4.6,-169.6,-537,464,18299,26.26
56,2026-03-06T18:43:43.324000,18:43:43.324,0.65078,1.23457,-9.45068,5.5542,2.1973,-2.9907,169.0,-4.6,-169.1,0.65078,-1.23457,9.45068,5.5542,-2.1973,-2.9907,-349.0,-4.6,-169.1,-497,579,18349,26.38
57,2026-03-06T18:43:43.424000,18:43:43.424,0.93311,1.21543,-9.72822,-0.6714,0.3052,-2.9297,169.4,-4.6,-168.9,0.93311,-1.21543,9.72822,-0.6714,-0.3052,-2.9297,-349.4,-4.6,-168.9,-540,704,18386,26.13
58,2026-03-06T18:43:43.524000,18:43:43.524,0.7417,0.53594,-9.69473,5.5542,-2.3804,-2.8687,169.8,-4.5,-168.5,0.7417,-0.53594,9.69473,5.5542,2.3804,-2.8687,-349.8,-4.5,-168.5,-526,734,18352,26.07
59,2026-03-06T18:43:43.623000,18:43:43.623,0.36846,1.14365,-9.74258,-3.6011,7.0801,-2.0142,170.0,-4.6,-168.4,0.36846,-1.14365,9.74258,-3.6011,-7.0801,-2.0142,-350.0,-4.6,-168.4,-479,821,18344,26.32
60,2026-03-06T18:43:43.723000,18:43:43.723,0.67949,1.27285,-9.5751,-0.6714,1.9531,-1.5869,169.8,-4.6,-168.0,0.67949,-1.27285,9.5751,-0.6714,-1.9531,-1.5869,-349.8,-4.6,-168.0,-574,747,18344,26.32
61,2026-03-06T18:43:43.823000,18:43:43.823,1.17715,1.00488,-9.57988,-0.4272,-0.8545,-1.5869,170.0,-4.8,-167.9,1.17715,-1.00488,9.57988,-0.4272,0.8545,-1.5869,-350.0,-4.8,-167.9,-671,674,18299,26.26
62,2026-03-06T18:43:43.923000,18:43:43.923,0.27275,1.16279,-10.21631,-1.4038,-2.3804,-3.479,170.2,-4.8,-167.6,0.27275,-1.16279,10.21631,-1.4038,2.3804,-3.479,-350.2,-4.8,-167.6,-733,662,18325,26.19
63,2026-03-06T18:43:44.023000,18:43:44.023,-0.05742,1.13408,-9.21143,-17.2119,4.1504,-3.418,169.3,-4.6,-167.2,-0.05742,-1.13408,9.21143,-17.2119,-4.1504,-3.418,-349.3,-4.6,-167.2,-730,524,18348,26.19
64,2026-03-06T18:43:44.122000,18:43:44.122,0.39238,1.63652,-9.08223,-25.3296,12.6953,-0.6714,167.3,-5.2,-167.0,0.39238,-1.63652,9.08223,-25.3296,-12.6953,-0.6714,-347.3,-5.2,-167.0,-806,27,18300,26.38
65,2026-03-06T18:43:44.222000,18:43:44.222,1.63652,2.25381,-10.24502,-11.2915,14.4043,3.2959,165.7,-7.4,-166.7,1.63652,-2.25381,10.24502,-11.2915,-14.4043,3.2959,-345.7,-7.4,-166.7,-1273,-639,18171,26.26
66,2026-03-06T18:43:44.322000,18:43:44.322,1.54561,2.01934,-9.49375,0.8545,5.4932,-1.3428,165.1,-7.4,-166.5,1.54561,-2.01934,9.49375,0.8545,-5.4932,-1.3428,-345.1,-7.4,-166.5,-1652,-1075,18076,26.13
67,2026-03-06T18:43:44.422000,18:43:44.422,0.67949,2.05283,-9.62295,5.8594,-7.0801,-0.6714,165.8,-7.2,-166.6,0.67949,-2.05283,9.62295,5.8594,7.0801,-0.6714,-345.8,-7.2,-166.6,-1748,-1117,18101,26.32
68,2026-03-06T18:43:44.522000,18:43:44.522,-0.05264,1.88057,-9.24492,0.8545,-6.2256,0.1831,166.7,-6.8,-166.7,-0.05264,-1.88057,9.24492,0.8545,6.2256,0.1831,-346.7,-6.8,-166.7,-1662,-889,18179,26.26
69,2026-03-06T18:43:44.621000,18:43:44.621,1.0958,2.16768,-9.57988,-5.3101,-3.7842,1.1597,166.5,-6.6,-166.6,1.0958,-2.16768,9.57988,-5.3101,3.7842,1.1597,-346.5,-6.6,-166.6,-1601,-828,18197,26.13
70,2026-03-06T18:43:44.721000,18:43:44.721,1.95234,2.20117,-8.9291,3.2349,1.4648,3.6011,166.3,-6.2,-167.1,1.95234,-2.20117,8.9291,3.2349,-1.4648,3.6011,-346.3,-6.2,-167.1,-1501,-907,18123,26.26
71,2026-03-06T18:43:44.821000,18:43:44.821,0.59814,1.64609,-9.82393,22.583,-13.0005,-0.9766,168.3,-6.0,-167.6,0.59814,-1.64609,9.82393,22.583,13.0005,-0.9766,-348.3,-6.0,-167.6,-1523,-644,18173,26.32
72,2026-03-06T18:43:44.921000,18:43:44.921,-0.11006,1.20107,-9.4459,7.9346,-1.3428,-7.9956,169.8,-5.4,-166.7,-0.11006,-1.20107,9.4459,7.9346,1.3428,-7.9956,-349.8,-5.4,-166.7,-1390,-88,18308,26.19
73,2026-03-06T18:43:45.021000,18:43:45.021,0.4833,1.52168,-10.24502,-0.061,-0.3052,1.2817,170.1,-5.1,-166.6,0.4833,-1.52168,10.24502,-0.061,0.3052,1.2817,-350.1,-5.1,-166.6,-1303,133,18329,26.32
74,2026-03-06T18:43:45.121000,18:43:45.121,1.1915,1.45947,-9.24014,-3.7842,4.0283,4.0894,169.6,-5.1,-166.9,1.1915,-1.45947,9.24014,-3.7842,-4.0283,4.0894,-349.6,-5.1,-166.9,-1281,93,18309,26.13
75,2026-03-06T18:43:45.220000,18:43:45.220,0.29189,1.50732,-9.55117,6.6528,-2.7466,0.8545,170.0,-5.0,-167.2,0.29189,-1.50732,9.55117,6.6528,2.7466,0.8545,-350.0,-5.0,-167.2,-1380,31,18264,26.32
76,2026-03-06T18:43:45.320000,18:43:45.320,0.27754,1.4834,-9.0583,-3.2959,3.7842,0.061,170.1,-5.0,-167.3,0.27754,-1.4834,9.0583,-3.2959,-3.7842,0.061,-350.1,-5.0,-167.3,-1371,147,18320,26.19
77,2026-03-06T18:43:45.420000,18:43:45.420,0.17227,1.24414,-9.68516,5.6152,0.4272,3.2349,170.6,-5.1,-167.5,0.17227,-1.24414,9.68516,5.6152,-0.4272,3.2349,-350.6,-5.1,-167.5,-1445,234,18332,26.38
78,2026-03-06T18:43:45.520000,18:43:45.520,0.76562,1.44512,-9.34541,-9.6436,6.5308,1.77,170.2,-5.0,-167.6,0.76562,-1.44512,9.34541,-9.6436,-6.5308,1.77,-350.2,-5.0,-167.6,-1473,277,18399,26.32
79,2026-03-06T18:43:45.620000,18:43:45.620,0.65557,1.17236,-10.12061,6.2866,-9.2163,6.0425,170.6,-5.0,-168.2,0.65557,-1.17236,10.12061,6.2866,9.2163,6.0425,-350.6,-5.0,-168.2,-1571,180,18415,26.26
80,2026-03-06T18:43:45.720000,18:43:45.720,0.38281,1.11494,-9.95791,-3.418,-3.6621,2.6245,170.9,-4.7,-168.6,0.38281,-1.11494,9.95791,-3.418,3.6621,2.6245,-350.9,-4.7,-168.6,-1506,323,18404,26.26
81,2026-03-06T18:43:45.819000,18:43:45.819,0.09092,1.26807,-9.06787,6.2866,0.4883,5.127,171.1,-4.5,-169.1,0.09092,-1.26807,9.06787,6.2866,-0.4883,5.127,-351.1,-4.5,-169.1,-1495,353,18426,26.32
82,2026-03-06T18:43:45.919000,18:43:45.919,0.00957,1.15322,-9.96748,-2.9297,-1.0376,2.1362,171.6,-4.3,-169.4,0.00957,-1.15322,9.96748,-2.9297,1.0376,2.1362,-351.6,-4.3,-169.4,-1546,518,18477,26.38
83,2026-03-06T18:43:46.019000,18:43:46.019,1.05273,1.40684,-9.88135,-0.5493,4.1504,7.019,171.3,-4.6,-169.8,1.05273,-1.40684,9.88135,-0.5493,-4.1504,7.019,-351.3,-4.6,-169.8,-1585,481,18517,26.32
84,2026-03-06T18:43:46.119000,18:43:46.119,0.39717,1.16279,-9.76172,1.1597,-2.1973,3.1128,171.6,-4.3,-170.4,0.39717,-1.16279,9.76172,1.1597,2.1973,3.1128,-351.6,-4.3,-170.4,-1662,483,18442,26.26
85,2026-03-06T18:43:46.219000,18:43:46.219,0.24883,0.80391,-10.09189,2.9907,-4.5166,5.0659,171.9,-3.9,-170.8,0.24883,-0.80391,10.09189,2.9907,4.5166,5.0659,-351.9,-3.9,-170.8,-1650,542,18454,26.32
86,2026-03-06T18:43:46.318000,18:43:46.318,0.26797,1.03838,-9.22578,-1.5259,1.4038,4.3335,172.0,-3.7,-171.3,0.26797,-1.03838,9.22578,-1.5259,-1.4038,4.3335,-352.0,-3.7,-171.3,-1630,599,18488,26.26
87,2026-03-06T18:43:46.418000,18:43:46.418,0.21533,0.76562,-10.20674,-1.8921,-4.9438,5.3101,172.2,-3.5,-171.9,0.21533,-0.76562,10.20674,-1.8921,4.9438,5.3101,-352.2,-3.5,-171.9,-1648,634,18515,26.32
88,2026-03-06T18:43:46.518000,18:43:46.518,0.36367,1.26328,-9.79521,-0.6104,-0.7935,6.897,172.0,-3.4,-172.4,0.36367,-1.26328,9.79521,-0.6104,0.7935,6.897,-352.0,-3.4,-172.4,-1668,629,18486,26.32
89,2026-03-06T18:43:46.618000,18:43:46.618,0.0335,1.28242,-9.80957,-4.0894,-1.5869,4.9438,172.1,-3.2,-173.1,0.0335,-1.28242,9.80957,-4.0894,1.5869,4.9438,-352.1,-3.2,-173.1,-1691,662,18498,26.45
90,2026-03-06T18:43:46.718000,18:43:46.718,0.06221,1.15801,-9.91484,2.2583,-2.0142,7.7515,172.1,-3.0,-173.6,0.06221,-1.15801,9.91484,2.2583,2.0142,7.7515,-352.1,-3.0,-173.6,-1726,665,18497,26.26
91,2026-03-06T18:43:46.818000,18:43:46.818,0.1627,1.40684,-9.65166,-4.3945,1.2207,6.7139,172.0,-2.9,-174.4,0.1627,-1.40684,9.65166,-4.3945,-1.2207,6.7139,-352.0,-2.9,-174.4,-1751,706,18505,26.32
92,2026-03-06T18:43:46.917000,18:43:46.917,0.24883,1.3207,-9.71387,-0.4272,-0.061,8.1177,171.8,-2.7,-175.1,0.24883,-1.3207,9.71387,-0.4272,0.061,8.1177,-351.8,-2.7,-175.1,-1785,670,18479,26.19
93,2026-03-06T18:43:47.017000,18:43:47.017,-0.0957,1.3542,-9.70908,-2.3804,-1.8921,7.2021,171.8,-2.5,-175.9,-0.0957,-1.3542,9.70908,-2.3804,1.8921,7.2021,-351.8,-2.5,-175.9,-1819,694,18418,26.32
94,2026-03-06T18:43:47.117000,18:43:47.117,0.26318,1.40205,-10.0249,1.0986,-0.4883,8.7891,171.7,-2.5,-176.8,0.26318,-1.40205,10.0249,1.0986,0.4883,8.7891,-351.7,-2.5,-176.8,-1856,707,18399,26.26
95,2026-03-06T18:43:47.217000,18:43:47.217,-0.09092,1.51211,-9.36934,-2.6245,1.4038,7.0801,171.6,-2.5,-177.5,-0.09092,-1.51211,9.36934,-2.6245,-1.4038,7.0801,-351.6,-2.5,-177.5,-1918,726,18404,26.38
96,2026-03-06T18:43:47.317000,18:43:47.317,0.66992,1.41162,-9.6373,-2.3804,1.5259,10.0098,171.4,-2.5,-178.4,0.66992,-1.41162,9.6373,-2.3804,-1.5259,10.0098,-351.4,-2.5,-178.4,-1938,649,18281,26.38
97,2026-03-06T18:43:47.416000,18:43:47.416,0.6125,1.52168,-9.51289,-2.1362,-3.479,7.2021,171.2,-2.5,-179.2,0.6125,-1.52168,9.51289,-2.1362,3.479,7.2021,-351.2,-2.5,-179.2,-2005,646,18306,26.38
98,2026-03-06T18:43:47.516000,18:43:47.516,0.40674,1.63174,-9.98184,1.709,-3.479,7.6294,171.3,-2.5,179.9,0.40674,-1.63174,9.98184,1.709,3.479,7.6294,-351.3,-2.5,179.9,-2045,655,18254,26.45
99,2026-03-06T18:43:47.616000,18:43:47.616,0.31104,2.01934,-9.32148,-2.9297,0.3662,6.2866,171.1,-2.4,179.3,0.31104,-2.01934,9.32148,-2.9297,-0.3662,6.2866,-351.1,-2.4,179.3,-2057,689,18273,26.32
100,2026-03-06T18:43:47.716000,18:43:47.716,0.579,1.76094,-9.75693,2.0142,0.5493,6.2866,171.1,-2.5,178.6,0.579,-1.76094,9.75693,2.0142,-0.5493,6.2866,-351.1,-2.5,178.6,-2084,713,18282,26.26
101,2026-03-06T18:43:47.816000,18:43:47.816,0.53115,1.73701,-9.34063,-1.8921,-2.4414,6.4087,170.9,-2.5,178.0,0.53115,-1.73701,9.34063,-1.8921,2.4414,6.4087,-350.9,-2.5,178.0,-2112,767,18312,26.32
102,2026-03-06T18:43:47.916000,18:43:47.916,0.94268,1.82314,-9.69951,0.4272,-0.3052,8.3618,170.9,-2.7,177.2,0.94268,-1.82314,9.69951,0.4272,0.3052,8.3618,-350.9,-2.7,177.2,-2138,780,18318,26.19
103,2026-03-06T18:43:48.015000,18:43:48.015,0.59814,2.17246,-9.23535,-4.3335,-2.0142,5.249,170.5,-2.7,176.7,0.59814,-2.17246,9.23535,-4.3335,2.0142,5.249,-350.5,-2.7,176.7,-2176,816,18308,26.38
104,2026-03-06T18:43:48.115000,18:43:48.115,0.82305,2.4165,-9.6708,-0.061,0.9155,6.6528,170.2,-2.8,175.9,0.82305,-2.4165,9.6708,-0.061,-0.9155,6.6528,-350.2,-2.8,175.9,-2205,769,18332,26.26
105,2026-03-06T18:43:48.215000,18:43:48.215,0.6125,2.52178,-9.51289,-3.2349,-3.2959,4.6387,169.8,-2.9,175.4,0.6125,-2.52178,9.51289,-3.2349,3.2959,4.6387,-349.8,-2.9,175.4,-2252,783,18327,26.32
106,2026-03-06T18:43:48.315000,18:43:48.315,0.68428,2.38301,-9.5416,2.8076,-2.2583,6.7749,169.7,-2.9,174.8,0.68428,-2.38301,9.5416,2.8076,2.2583,6.7749,-349.7,-2.9,174.8,-2251,825,18336,26.32
107,2026-03-06T18:43:48.415000,18:43:48.415,0.39238,2.47871,-9.13965,-3.9673,-2.5635,4.0283,169.4,-2.7,174.2,0.39238,-2.47871,9.13965,-3.9673,2.5635,4.0283,-349.4,-2.7,174.2,-2246,896,18346,26.45
108,2026-03-06T18:43:48.514000,18:43:48.514,0.55029,2.58398,-9.57988,0.6104,-1.9531,5.9814,169.1,-2.6,173.6,0.55029,-2.58398,9.57988,0.6104,1.9531,5.9814,-349.1,-2.6,173.6,-2246,844,18367,26.32
109,2026-03-06T18:43:48.614000,18:43:48.614,0.68906,2.45,-9.35498,-4.5776,-0.1831,5.4932,168.7,-2.6,173.0,0.68906,-2.45,9.35498,-4.5776,0.1831,5.4932,-348.7,-2.6,173.0,-2222,843,18386,26.45
110,2026-03-06T18:43:48.714000,18:43:48.714,0.77041,2.64619,-9.78564,2.3804,-3.479,6.958,168.5,-2.6,172.4,0.77041,-2.64619,9.78564,2.3804,3.479,6.958,-348.5,-2.6,172.4,-2238,836,18359,26.26
111,2026-03-06T18:43:48.814000,18:43:48.814,0.30146,2.30645,-9.0918,-2.7466,-0.4883,5.4321,168.3,-2.5,171.8,0.30146,-2.30645,9.0918,-2.7466,0.4883,5.4321,-348.3,-2.5,171.8,-2227,921,18373,26.32
112,2026-03-06T18:43:48.914000,18:43:48.914,0.56465,2.58398,-9.55596,0.3052,-0.6104,7.0801,168.0,-2.6,171.1,0.56465,-2.58398,9.55596,0.3052,0.6104,7.0801,-348.0,-2.6,171.1,-2261,925,18389,26.38
113,2026-03-06T18:43:49.014000,18:43:49.014,0.56943,2.39736,-9.25449,-1.9531,-2.3804,5.0659,167.7,-2.5,170.5,0.56943,-2.39736,9.25449,-1.9531,2.3804,5.0659,-347.7,-2.5,170.5,-2254,957,18404,26.38
114,2026-03-06T18:43:49.113000,18:43:49.113,0.29668,2.45,-9.95312,-1.0376,-2.0142,7.1411,167.7,-2.5,169.8,0.29668,-2.45,9.95312,-1.0376,2.0142,7.1411,-347.7,-2.5,169.8,-2265,949,18392,26.38
115,2026-03-06T18:43:49.213000,18:43:49.213,0.69385,2.58398,-9.12051,3.6621,-2.9907,9.2163,167.4,-2.5,169.1,0.69385,-2.58398,9.12051,3.6621,2.9907,9.2163,-347.4,-2.5,169.1,-2315,972,18352,26.26
116,2026-03-06T18:43:49.313000,18:43:49.313,0.00479,2.97158,-9.46025,7.6904,-7.5684,12.3901,167.8,-2.2,167.6,0.00479,-2.97158,9.46025,7.6904,7.5684,12.3901,-347.8,-2.2,167.6,-2241,1100,18411,26.26
117,2026-03-06T18:43:49.413000,18:43:49.413,-0.06699,2.0959,-9.29756,3.0518,-0.4883,3.479,168.0,-1.4,166.9,-0.06699,-2.0959,9.29756,3.0518,0.4883,3.479,-348.0,-1.4,166.9,-2051,1242,18437,26.19
118,2026-03-06T18:43:49.513000,18:43:49.513,0.5168,1.73223,-10.13496,-1.4648,-7.1411,5.249,168.5,-1.6,166.2,0.5168,-1.73223,10.13496,-1.4648,7.1411,5.249,-348.5,-1.6,166.2,-2040,1428,18468,26.38
119,2026-03-06T18:43:49.612000,18:43:49.612,0.53594,1.50254,-9.46504,3.54,1.77,6.897,168.3,-1.5,165.7,0.53594,-1.50254,9.46504,3.54,-1.77,6.897,-348.3,-1.5,165.7,-1998,1439,18435,26.38
120,2026-03-06T18:43:49.712000,18:43:49.712,-0.39717,1.76572,-9.6373,-5.7983,-4.1504,4.5166,168.3,-1.4,165.1,-0.39717,-1.76572,9.6373,-5.7983,4.1504,4.5166,-348.3,-1.4,165.1,-2015,1463,18485,26.32
121,2026-03-06T18:43:49.812000,18:43:49.812,0.43545,1.32549,-9.56553,5.3711,6.0425,9.1553,168.7,-1.7,164.3,0.43545,-1.32549,9.56553,5.3711,-6.0425,9.1553,-348.7,-1.7,164.3,-2075,1493,18457,26.38
122,2026-03-06T18:43:49.912000,18:43:49.912,0.3876,1.50732,-9.68037,-1.5259,3.1738,5.7373,168.9,-2.0,163.7,0.3876,-1.50732,9.68037,-1.5259,-3.1738,5.7373,-348.9,-2.0,163.7,-2228,1607,18476,26.38
123,2026-03-06T18:43:50.012000,18:43:50.012,0.82783,1.38291,-9.88135,4.2114,1.3428,7.4463,169.4,-2.6,163.0,0.82783,-1.38291,9.88135,4.2114,-1.3428,7.4463,-349.4,-2.6,163.0,-2391,1704,18488,26.32
124,2026-03-06T18:43:50.112000,18:43:50.112,0.54072,1.77051,-9.26406,-1.5259,0.1831,7.3242,169.4,-2.6,162.4,0.54072,-1.77051,9.26406,-1.5259,-0.1831,7.3242,-349.4,-2.6,162.4,-2431,1839,18485,26.32
125,2026-03-06T18:43:50.211000,18:43:50.211,0.45938,1.63652,-9.93877,-2.0142,-2.1362,2.6855,169.8,-2.7,161.8,0.45938,-1.63652,9.93877,-2.0142,2.1362,2.6855,-349.8,-2.7,161.8,-2506,1946,18485,26.38
126,2026-03-06T18:43:50.311000,18:43:50.311,0.62686,1.67959,-9.24971,-1.6479,5.7373,6.7749,169.7,-3.1,161.4,0.62686,-1.67959,9.24971,-1.6479,-5.7373,6.7749,-349.7,-3.1,161.4,-2595,1973,18479,26.45
127,2026-03-06T18:43:50.411000,18:43:50.411,1.13887,1.8375,-9.84785,-6.5918,-9.0942,4.3335,169.4,-3.2,160.8,1.13887,-1.8375,9.84785,-6.5918,9.0942,4.3335,-349.4,-3.2,160.8,-2723,1962,18501,26.45
128,2026-03-06T18:43:50.511000,18:43:50.511,0.58857,2.11504,-9.58945,-10.498,-7.3853,7.2632,168.5,-2.6,160.1,0.58857,-2.11504,9.58945,-10.498,7.3853,7.2632,-348.5,-2.6,160.1,-2594,1820,18476,26.38
129,2026-03-06T18:43:50.611000,18:43:50.611,0.66035,2.15332,-9.3502,1.8311,5.6152,5.249,167.9,-2.4,159.5,0.66035,-2.15332,9.3502,1.8311,-5.6152,5.249,-347.9,-2.4,159.5,-2473,1584,18484,26.32
130,2026-03-06T18:43:50.710000,18:43:50.710,1.00488,2.34473,-9.53203,-2.6855,0.7324,5.188,167.7,-3.0,159.1,1.00488,-2.34473,9.53203,-2.6855,-0.7324,5.188,-347.7,-3.0,159.1,-2566,1526,18471,26.38
131,2026-03-06T18:43:50.810000,18:43:50.810,0.7417,2.11025,-9.33584,-0.6714,-4.0283,3.3569,167.7,-2.9,158.6,0.7417,-2.11025,9.33584,-0.6714,4.0283,3.3569,-347.7,-2.9,158.6,-2628,1528,18526,26.32
132,2026-03-06T18:43:50.910000,18:43:50.910,0.79434,2.11025,-9.64209,0.3662,-4.0894,3.6621,167.8,-3.0,158.2,0.79434,-2.11025,9.64209,0.3662,4.0894,3.6621,-347.8,-3.0,158.2,-2636,1579,18471,26.38
133,2026-03-06T18:43:51.010000,18:43:51.010,0.58379,2.32559,-9.23057,0.061,-0.4883,4.1504,167.7,-2.9,157.8,0.58379,-2.32559,9.23057,0.061,0.4883,4.1504,-347.7,-2.9,157.8,-2604,1576,18466,26.32
134,2026-03-06T18:43:51.110000,18:43:51.110,0.74648,2.00977,-9.91963,-3.2349,-6.4697,2.9907,167.7,-2.7,157.3,0.74648,-2.00977,9.91963,-3.2349,6.4697,2.9907,-347.7,-2.7,157.3,-2585,1639,18503,26.51
135,2026-03-06T18:43:51.209000,18:43:51.209,0.65078,2.15811,-9.51289,3.54,-2.5635,4.1504,167.6,-2.4,156.9,0.65078,-2.15811,9.51289,3.54,2.5635,4.1504,-347.6,-2.4,156.9,-2487,1653,18480,26.51
136,2026-03-06T18:43:51.309000,18:43:51.309,0.34453,2.29209,-9.58945,-0.4272,1.4038,3.7842,167.6,-2.2,156.4,0.34453,-2.29209,9.58945,-0.4272,-1.4038,3.7842,-347.6,-2.2,156.4,-2425,1691,18538,26.57
137,2026-03-06T18:43:51.409000,18:43:51.409,0.43066,2.11504,-9.39326,1.5869,-0.8545,5.4321,167.7,-2.4,156.0,0.43066,-2.11504,9.39326,1.5869,0.8545,5.4321,-347.7,-2.4,156.0,-2471,1733,18588,26.19
138,2026-03-06T18:43:51.509000,18:43:51.509,0.42588,2.31602,-9.16836,0.8545,-1.4038,5.188,167.6,-2.2,155.5,0.42588,-2.31602,9.16836,0.8545,1.4038,5.188,-347.6,-2.2,155.5,-2493,1774,18525,26.38
139,2026-03-06T18:43:51.609000,18:43:51.609,0.36367,2.12939,-9.68516,-2.8076,-4.0283,2.4414,167.7,-2.1,155.0,0.36367,-2.12939,9.68516,-2.8076,4.0283,2.4414,-347.7,-2.1,155.0,-2484,1820,18519,26.45
140,2026-03-06T18:43:51.709000,18:43:51.709,0.26797,2.18682,-9.42676,-0.3662,-1.5869,4.4556,167.5,-2.1,154.5,0.26797,-2.18682,9.42676,-0.3662,1.5869,4.4556,-347.5,-2.1,154.5,-2455,1811,18563,26.45
141,2026-03-06T18:43:51.808000,18:43:51.808,0.10049,2.15811,-9.55596,-1.77,-2.6855,5.249,167.6,-2.1,153.9,0.10049,-2.15811,9.55596,-1.77,2.6855,5.249,-347.6,-2.1,153.9,-2488,1872,18606,26.32
142,2026-03-06T18:43:51.908000,18:43:51.908,0.29189,2.00498,-9.73779,0.9155,-1.9531,6.2256,167.7,-2.2,153.3,0.29189,-2.00498,9.73779,0.9155,1.9531,6.2256,-347.7,-2.2,153.3,-2536,1919,18601,26.57
143,2026-03-06T18:43:52.008000,18:43:52.008,0.19141,2.13418,-9.25928,-2.1973,-1.2817,6.8359,167.5,-2.1,152.7,0.19141,-2.13418,9.25928,-2.1973,1.2817,6.8359,-347.5,-2.1,152.7,-2533,1934,18569,26.32
144,2026-03-06T18:43:52.108000,18:43:52.108,0.15313,2.08154,-9.94834,-1.9531,-4.8218,4.3335,167.5,-2.1,152.0,0.15313,-2.08154,9.94834,-1.9531,4.8218,4.3335,-347.5,-2.1,152.0,-2556,1894,18567,26.45
145,2026-03-06T18:43:52.208000,18:43:52.208,0.24883,2.06719,-9.4124,2.5635,2.9907,8.8501,167.3,-2.1,151.4,0.24883,-2.06719,9.4124,2.5635,-2.9907,8.8501,-347.3,-2.1,151.4,-2558,1860,18537,26.51
146,2026-03-06T18:43:52.308000,18:43:52.308,0.31104,2.15811,-9.78086,-2.4414,-1.0986,7.2632,167.2,-2.1,150.7,0.31104,-2.15811,9.78086,-2.4414,1.0986,7.2632,-347.2,-2.1,150.7,-2613,1875,18587,26.38
147,2026-03-06T18:43:52.407000,18:43:52.407,0.11006,2.02412,-9.74736,2.9907,-4.5166,7.7515,167.2,-2.1,149.9,0.11006,-2.02412,9.74736,2.9907,4.5166,7.7515,-347.2,-2.1,149.9,-2610,1902,18633,26.45
148,2026-03-06T18:43:52.507000,18:43:52.507,-0.18662,2.17246,-9.17793,2.3193,2.3193,7.6904,167.2,-1.9,149.2,-0.18662,-2.17246,9.17793,2.3193,-2.3193,7.6904,-347.2,-1.9,149.2,-2584,1979,18613,26.38
149,2026-03-06T18:43:52.607000,18:43:52.607,0.20576,1.97148,-10.06797,3.0518,4.0283,7.2021,167.6,-2.1,148.5,0.20576,-1.97148,10.06797,3.0518,-4.0283,7.2021,-347.6,-2.1,148.5,-2618,2080,18609,26.51
150,2026-03-06T18:43:52.707000,18:43:52.707,0.8374,2.01934,-9.64688,-3.2349,0.6104,8.7891,167.4,-2.7,147.8,0.8374,-2.01934,9.64688,-3.2349,-0.6104,8.7891,-347.4,-2.7,147.8,-2738,2186,18626,26.26
151,2026-03-06T18:43:52.807000,18:43:52.807,0.33018,2.1916,-9.51768,-5.6152,-3.2349,6.897,167.0,-2.4,147.0,0.33018,-2.1916,9.51768,-5.6152,3.2349,6.897,-347.0,-2.4,147.0,-2781,2173,18598,26.51
152,2026-03-06T18:43:52.906000,18:43:52.906,-0.10049,2.00498,-9.52725,0.2441,-5.3711,6.4697,167.2,-2.1,146.2,-0.10049,-2.00498,9.52725,0.2441,5.3711,6.4697,-347.2,-2.1,146.2,-2712,2138,18619,26.38
153,2026-03-06T18:43:53.006000,18:43:53.006,-0.0335,2.05762,-9.63252,4.4556,3.0518,8.667,167.3,-2.1,145.4,-0.0335,-2.05762,9.63252,4.4556,-3.0518,8.667,-347.3,-2.1,145.4,-2648,2260,18628,26.45
154,2026-03-06T18:43:53.106000,18:43:53.106,0.55029,2.15332,-9.42197,-3.2959,3.2349,8.3008,167.2,-2.2,144.7,0.55029,-2.15332,9.42197,-3.2959,-3.2349,8.3008,-347.2,-2.2,144.7,-2692,2328,18632,26.57
155,2026-03-06T18:43:53.206000,18:43:53.206,0.73691,1.871,-10.06797,-5.0049,-8.8501,6.1646,167.2,-2.4,143.8,0.73691,-1.871,10.06797,-5.0049,8.8501,6.1646,-347.2,-2.4,143.8,-2780,2310,18591,26.45
156,2026-03-06T18:43:53.306000,18:43:53.306,-0.06699,2.02891,-9.37412,2.4414,-0.9155,7.2021,166.9,-2.1,143.2,-0.06699,-2.02891,9.37412,2.4414,0.9155,7.2021,-346.9,-2.1,143.2,-2683,2250,18640,26.38
157,2026-03-06T18:43:53.406000,18:43:53.406,0.17705,2.17725,-9.14922,1.9531,2.8687,8.1177,167.0,-2.0,142.5,0.17705,-2.17725,9.14922,1.9531,-2.8687,8.1177,-347.0,-2.0,142.5,-2687,2319,18622,26.45
158,2026-03-06T18:43:53.505000,18:43:53.505,0.34932,1.88057,-10.13496,-6.6528,-3.3569,4.8218,167.2,-2.2,141.8,0.34932,-1.88057,10.13496,-6.6528,3.3569,4.8218,-347.2,-2.2,141.8,-2749,2429,18596,26.38
159,2026-03-06T18:43:53.605000,18:43:53.605,0.53594,2.01934,-9.29277,3.6621,-0.9766,8.1787,167.0,-2.3,141.1,0.53594,-2.01934,9.29277,3.6621,0.9766,8.1787,-347.0,-2.3,141.1,-2753,2419,18639,26.32
160,2026-03-06T18:43:53.705000,18:43:53.705,0.44023,2.18682,-9.40762,-2.1362,2.6245,6.4697,167.0,-2.3,140.4,0.44023,-2.18682,9.40762,-2.1362,-2.6245,6.4697,-347.0,-2.3,140.4,-2767,2479,18646,26.64
161,2026-03-06T18:43:53.806000,18:43:53.806,0.58379,1.77051,-9.57031,-0.4883,-5.3101,6.0425,167.3,-2.4,139.8,0.58379,-1.77051,9.57031,-0.4883,5.3101,6.0425,-347.3,-2.4,139.8,-2824,2481,18614,26.38
162,2026-03-06T18:43:53.906000,18:43:53.906,0.57422,2.11504,-9.69951,1.709,2.0752,5.0659,167.3,-2.5,139.2,0.57422,-2.11504,9.69951,1.709,-2.0752,5.0659,-347.3,-2.5,139.2,-2784,2519,18645,26.45
163,2026-03-06T18:43:54.005000,18:43:54.005,0.89482,2.05762,-9.25449,-0.4883,1.9531,6.2256,167.2,-2.7,138.8,0.89482,-2.05762,9.25449,-0.4883,-1.9531,6.2256,-347.2,-2.7,138.8,-2836,2533,18605,26.38
164,2026-03-06T18:43:54.105000,18:43:54.105,0.71299,1.82314,-9.71387,-7.1411,-5.3101,2.5024,167.3,-2.7,138.2,0.71299,-1.82314,9.71387,-7.1411,5.3101,2.5024,-347.3,-2.7,138.2,-2842,2565,18638,26.38
165,2026-03-06T18:43:54.205000,18:43:54.205,0.66992,2.15332,-9.5416,2.8076,-1.3428,5.188,167.1,-2.9,137.8,0.66992,-2.15332,9.5416,2.8076,1.3428,5.188,-347.1,-2.9,137.8,-2842,2542,18635,26.32
166,2026-03-06T18:43:54.305000,18:43:54.305,0.84697,2.14375,-9.33584,4.0283,4.7607,5.127,167.2,-3.0,137.4,0.84697,-2.14375,9.33584,4.0283,-4.7607,5.127,-347.2,-3.0,137.4,-2854,2569,18643,26.45
167,2026-03-06T18:43:54.405000,18:43:54.405,0.66035,1.96191,-9.78564,-3.54,-2.1973,3.1128,167.4,-3.0,137.0,0.66035,-1.96191,9.78564,-3.54,2.1973,3.1128,-347.4,-3.0,137.0,-2871,2621,18632,26.45
168,2026-03-06T18:43:54.504000,18:43:54.504,1.21064,2.03369,-9.39326,-0.1221,0.7935,4.4556,167.3,-3.5,136.7,1.21064,-2.03369,9.39326,-0.1221,-0.7935,4.4556,-347.3,-3.5,136.7,-2903,2619,18636,26.38
169,2026-03-06T18:43:54.604000,18:43:54.604,1.21064,2.01934,-9.36455,1.5869,1.3428,3.6011,167.2,-3.6,136.3,1.21064,-2.01934,9.36455,1.5869,-1.3428,3.6011,-347.2,-3.6,136.3,-2918,2576,18630,26.38
170,2026-03-06T18:43:54.704000,18:43:54.704,1.11016,2.14375,-9.35977,-2.6855,0.4883,2.0752,167.0,-3.7,136.1,1.11016,-2.14375,9.35977,-2.6855,-0.4883,2.0752,-347.0,-3.7,136.1,-2927,2562,18658,26.45
171,2026-03-06T18:43:54.803000,18:43:54.803,1.17236,1.98584,-10.31201,-1.6479,-2.5024,0.9155,167.3,-4.0,135.8,1.17236,-1.98584,10.31201,-1.6479,2.5024,0.9155,-347.3,-4.0,135.8,-2966,2595,18649,26.51
172,2026-03-06T18:43:54.903000,18:43:54.903,1.51211,1.98584,-9.32627,3.479,1.4038,1.77,167.1,-4.3,135.8,1.51211,-1.98584,9.32627,3.479,-1.4038,1.77,-347.1,-4.3,135.8,-3007,2570,18622,26.51
173,2026-03-06T18:43:55.003000,18:43:55.003,1.30635,2.09111,-9.13965,-2.0142,0.1831,1.709,166.8,-4.3,135.7,1.30635,-2.09111,9.13965,-2.0142,-0.1831,1.709,-346.8,-4.3,135.7,-2988,2528,18589,26.45
174,2026-03-06T18:43:55.103000,18:43:55.103,1.21064,1.99541,-9.23535,-4.3335,-4.0283,-0.9155,166.8,-4.3,135.5,1.21064,-1.99541,9.23535,-4.3335,4.0283,-0.9155,-346.8,-4.3,135.5,-2994,2468,18567,26.38
175,2026-03-06T18:43:55.202000,18:43:55.202,1.33984,1.66523,-9.86221,-0.8545,-2.3193,-0.4272,167.1,-4.5,135.5,1.33984,-1.66523,9.86221,-0.8545,2.3193,-0.4272,-347.1,-4.5,135.5,-2961,2468,18572,26.45
176,2026-03-06T18:43:55.302000,18:43:55.302,1.46904,1.68916,-9.27842,7.0801,0.7324,1.6479,167.2,-4.6,135.4,1.46904,-1.68916,9.27842,7.0801,-0.7324,1.6479,-347.2,-4.6,135.4,-2908,2451,18586,26.64
177,2026-03-06T18:43:55.402000,18:43:55.402,1.0623,1.72266,-9.46982,-2.1973,-6.0425,-0.4272,167.3,-4.1,135.1,1.0623,-1.72266,9.46982,-2.1973,6.0425,-0.4272,-347.3,-4.1,135.1,-2817,2489,18582,26.51
178,2026-03-06T18:43:55.503000,18:43:55.503,1.20107,1.14844,-9.80479,-8.5449,-5.0049,-2.3804,167.9,-4.2,135.1,1.20107,-1.14844,9.80479,-8.5449,5.0049,-2.3804,-347.9,-4.2,135.1,-2686,2530,18607,26.51
179,2026-03-06T18:43:55.603000,18:43:55.603,1.03359,0.91875,-9.43154,3.418,-2.0752,-0.8545,167.9,-4.2,135.3,1.03359,-0.91875,9.43154,3.418,2.0752,-0.8545,-347.9,-4.2,135.3,-2606,2437,18593,26.51
180,2026-03-06T18:43:55.702000,18:43:55.702,1.29678,1.7083,-9.91484,1.6479,9.2773,2.3804,168.1,-4.4,135.2,1.29678,-1.7083,9.91484,1.6479,-9.2773,2.3804,-348.1,-4.4,135.2,-2578,2411,18562,26.51
181,2026-03-06T18:43:55.801000,18:43:55.801,1.40684,1.18672,-9.56074,-1.1597,-1.8311,-2.3193,168.2,-4.8,135.4,1.40684,-1.18672,9.56074,-1.1597,1.8311,-2.3193,-348.2,-4.8,135.4,-2694,2418,18581,26.64
182,2026-03-06T18:43:55.901000,18:43:55.901,0.8709,1.4834,-10.00098,-5.4932,-2.3804,-0.6104,168.2,-4.6,135.4,0.8709,-1.4834,10.00098,-5.4932,2.3804,-0.6104,-348.2,-4.6,135.4,-2693,2409,18584,26.57
183,2026-03-06T18:43:56.001000,18:43:56.001,1.25371,1.2585,-9.61816,3.6621,1.2817,-0.061,168.6,-4.9,135.4,1.25371,-1.2585,9.61816,3.6621,-1.2817,-0.061,-348.6,-4.9,135.4,-2686,2370,18606,26.32
184,2026-03-06T18:43:56.101000,18:43:56.101,0.95225,1.26328,-9.37891,0.3662,1.0986,0.8545,168.7,-4.8,135.4,0.95225,-1.26328,9.37891,0.3662,-1.0986,0.8545,-348.7,-4.8,135.4,-2674,2415,18626,26.57
185,2026-03-06T18:43:56.201000,18:43:56.201,1.03359,1.40684,-9.46025,0.2441,-0.2441,0.9766,168.9,-4.8,135.3,1.03359,-1.40684,9.46025,0.2441,0.2441,0.9766,-348.9,-4.8,135.3,-2686,2372,18569,26.45
186,2026-03-06T18:43:56.300000,18:43:56.300,1.04316,1.17715,-9.79521,-1.709,-5.6152,-1.5259,169.3,-4.9,135.3,1.04316,-1.17715,9.79521,-1.709,5.6152,-1.5259,-349.3,-4.9,135.3,-2706,2423,18587,26.51
187,2026-03-06T18:43:56.400000,18:43:56.400,0.71299,1.27285,-9.54639,1.4038,-1.3428,0.7324,169.6,-4.7,135.3,0.71299,-1.27285,9.54639,1.4038,1.3428,0.7324,-349.6,-4.7,135.3,-2660,2463,18661,26.64
188,2026-03-06T18:43:56.500000,18:43:56.500,0.9666,1.47861,-9.48896,1.1597,5.3101,2.8076,169.7,-4.7,135.1,0.9666,-1.47861,9.48896,1.1597,-5.3101,2.8076,-349.7,-4.7,135.1,-2641,2491,18628,26.57
189,2026-03-06T18:43:56.600000,18:43:56.600,1.22021,1.41641,-9.76172,-5.8594,-5.127,-1.0986,169.7,-5.0,135.1,1.22021,-1.41641,9.76172,-5.8594,5.127,-1.0986,-349.7,-5.0,135.1,-2699,2504,18601,26.51
190,2026-03-06T18:43:56.700000,18:43:56.700,0.80391,1.60781,-9.58467,0.9155,-3.1128,1.4648,169.7,-4.8,135.0,0.80391,-1.60781,9.58467,0.9155,3.1128,1.4648,-349.7,-4.8,135.0,-2679,2480,18613,26.45
191,2026-03-06T18:43:56.800000,18:43:56.800,0.91875,1.55996,-9.51289,3.9062,2.5635,2.0142,169.8,-4.8,134.9,0.91875,-1.55996,9.51289,3.9062,-2.5635,2.0142,-349.8,-4.8,134.9,-2657,2454,18603,26.57
192,2026-03-06T18:43:56.900000,18:43:56.900,0.9666,1.72266,-9.67559,-4.2725,-2.1973,0.7324,169.8,-4.7,134.8,0.9666,-1.72266,9.67559,-4.2725,2.1973,0.7324,-349.8,-4.7,134.8,-2629,2479,18615,26.57
193,2026-03-06T18:43:56.999000,18:43:56.999,1.11494,1.60781,-9.99619,0.6104,-3.479,0.1221,169.9,-4.8,134.6,1.11494,-1.60781,9.99619,0.6104,3.479,0.1221,-349.9,-4.8,134.6,-2650,2492,18597,26.51
194,2026-03-06T18:43:57.099000,18:43:57.099,0.91396,1.35898,-9.43633,1.5259,1.2207,1.1597,170.0,-4.8,134.6,0.91396,-1.35898,9.43633,1.5259,-1.2207,1.1597,-350.0,-4.8,134.6,-2654,2523,18578,26.57
195,2026-03-06T18:43:57.199000,18:43:57.199,1.01445,1.66045,-9.47939,-1.0376,2.8687,1.0986,169.8,-4.7,134.5,1.01445,-1.66045,9.47939,-1.0376,-2.8687,1.0986,-349.8,-4.7,134.5,-2627,2508,18609,26.51
196,2026-03-06T18:43:57.299000,18:43:57.299,0.95225,1.71787,-10.07754,-0.3662,-5.3101,0.061,170.0,-5.0,134.4,0.95225,-1.71787,10.07754,-0.3662,5.3101,0.061,-350.0,-5.0,134.4,-2687,2528,18595,26.57
197,2026-03-06T18:43:57.399000,18:43:57.399,1.11016,1.46426,-9.6708,2.0752,0.4272,0.9155,170.2,-5.0,134.3,1.11016,-1.46426,9.6708,2.0752,-0.4272,0.9155,-350.2,-5.0,134.3,-2701,2597,18685,26.51
198,2026-03-06T18:43:57.498000,18:43:57.498,0.89961,1.64131,-9.49854,-0.7324,2.1973,0.5493,170.0,-4.9,134.2,0.89961,-1.64131,9.49854,-0.7324,-2.1973,0.5493,-350.0,-4.9,134.2,-2662,2626,18809,26.51
199,2026-03-06T18:43:57.598000,18:43:57.598,0.80391,1.71309,-9.80957,-6.4087,-1.3428,-1.4648,169.9,-5.0,134.2,0.80391,-1.71309,9.80957,-6.4087,1.3428,-1.4648,-349.9,-5.0,134.2,-2718,2603,18723,26.51
200,2026-03-06T18:43:57.698000,18:43:57.698,1.63174,1.18672,-9.90527,2.8076,2.4414,0.7935,170.0,-5.6,134.2,1.63174,-1.18672,9.90527,2.8076,-2.4414,0.7935,-350.0,-5.6,134.2,-2808,2549,18700,26.38
201,2026-03-06T18:43:57.798000,18:43:57.798,0.81348,1.77529,-9.78564,-6.5918,-2.5635,-1.0376,169.7,-5.4,134.2,0.81348,-1.77529,9.78564,-6.5918,2.5635,-1.0376,-349.7,-5.4,134.2,-2831,2576,18770,26.51
202,2026-03-06T18:43:57.898000,18:43:57.898,1.0001,1.79443,-9.58945,-3.479,0.7324,1.5869,169.4,-5.4,134.1,1.0001,-1.79443,9.58945,-3.479,-0.7324,1.5869,-349.4,-5.4,134.1,-2829,2456,18661,26.64
203,2026-03-06T18:43:57.997000,18:43:57.997,1.43076,1.55518,-9.61338,-3.8452,-1.2207,0.0,169.3,-5.7,134.0,1.43076,-1.55518,9.61338,-3.8452,1.2207,0.0,-349.3,-5.7,134.0,-2856,2382,18581,26.38
204,2026-03-06T18:43:58.097000,18:43:58.097,1.33027,1.67959,-9.25449,0.8545,-0.061,2.3193,169.1,-5.7,133.9,1.33027,-1.67959,9.25449,0.8545,0.061,2.3193,-349.1,-5.7,133.9,-2853,2323,18598,26.32
205,2026-03-06T18:43:58.197000,18:43:58.197,0.86133,1.73223,-9.14443,0.9155,0.7324,-0.8545,169.5,-5.5,133.9,0.86133,-1.73223,9.14443,0.9155,-0.7324,-0.8545,-349.5,-5.5,133.9,-2827,2344,18583,26.7
206,2026-03-06T18:43:58.297000,18:43:58.297,1.3207,1.41641,-9.94834,-6.1646,-6.8359,0.1221,169.6,-5.5,133.8,1.3207,-1.41641,9.94834,-6.1646,6.8359,0.1221,-349.6,-5.5,133.8,-2824,2417,18640,26.51
207,2026-03-06T18:43:58.397000,18:43:58.397,1.31113,1.75137,-9.30234,3.0518,-2.0142,2.4414,169.3,-5.4,133.6,1.31113,-1.75137,9.30234,3.0518,2.0142,2.4414,-349.3,-5.4,133.6,-2708,2296,18650,26.51
208,2026-03-06T18:43:58.497000,18:43:58.497,0.90918,1.85664,-9.32627,0.7324,2.9297,0.5493,169.1,-5.1,133.5,0.90918,-1.85664,9.32627,0.7324,-2.9297,0.5493,-349.1,-5.1,133.5,-2653,2226,18649,26.51
209,2026-03-06T18:43:58.596000,18:43:58.596,0.79912,1.73701,-9.46025,-5.4321,-5.127,-0.3662,169.1,-5.1,133.5,0.79912,-1.73701,9.46025,-5.4321,5.127,-0.3662,-349.1,-5.1,133.5,-2636,2239,18683,26.51
210,2026-03-06T18:43:58.696000,18:43:58.696,1.20586,1.83271,-9.70908,-1.2817,-0.1831,1.2207,169.1,-5.4,133.4,1.20586,-1.83271,9.70908,-1.2817,0.1831,1.2207,-349.1,-5.4,133.4,-2630,2236,18649,26.51
211,2026-03-06T18:43:58.796000,18:43:58.796,1.13887,1.73223,-9.53682,3.1128,0.9155,0.061,169.0,-5.4,133.4,1.13887,-1.73223,9.53682,3.1128,-0.9155,0.061,-349.0,-5.4,133.4,-2679,2209,18616,26.45
212,2026-03-06T18:43:58.896000,18:43:58.896,1.11494,1.85186,-9.42197,-0.7324,-0.5493,0.1831,169.0,-5.2,133.4,1.11494,-1.85186,9.42197,-0.7324,0.5493,0.1831,-349.0,-5.2,133.4,-2644,2246,18605,26.57
213,2026-03-06T18:43:58.996000,18:43:58.996,0.99531,1.82793,-9.88613,-0.3052,-4.6997,-0.061,169.1,-5.2,133.2,0.99531,-1.82793,9.88613,-0.3052,4.6997,-0.061,-349.1,-5.2,133.2,-2628,2265,18599,26.57
214,2026-03-06T18:43:59.096000,18:43:59.096,1.0001,1.56475,-9.72344,0.061,-1.5259,-0.3662,169.3,-5.2,133.2,1.0001,-1.56475,9.72344,0.061,1.5259,-0.3662,-349.3,-5.2,133.2,-2595,2238,18604,26.57
215,2026-03-06T18:43:59.195000,18:43:59.195,1.00488,1.74658,-9.61338,-0.4272,3.7231,1.4038,169.1,-5.1,133.2,1.00488,-1.74658,9.61338,-0.4272,-3.7231,1.4038,-349.1,-5.1,133.2,-2572,2205,18616,26.45
216,2026-03-06T18:43:59.295000,18:43:59.295,1.25371,1.89971,-9.79521,-4.2114,-2.5635,0.1221,169.0,-5.2,133.1,1.25371,-1.89971,9.79521,-4.2114,2.5635,0.1221,-349.0,-5.2,133.1,-2655,2201,18589,26.51
217,2026-03-06T18:43:59.395000,18:43:59.395,1.0623,1.54082,-9.59424,2.8687,-3.1738,0.3662,169.2,-5.3,133.0,1.0623,-1.54082,9.59424,2.8687,3.1738,0.3662,-349.2,-5.3,133.0,-2652,2166,18562,26.57
218,2026-03-06T18:43:59.495000,18:43:59.495,0.76084,1.78486,-9.57988,9.8877,3.2959,0.4272,169.6,-5.0,132.9,0.76084,-1.78486,9.57988,9.8877,-3.2959,0.4272,-349.6,-5.0,132.9,-2568,2292,18590,26.45
219,2026-03-06T18:43:59.595000,18:43:59.595,1.11016,1.60303,-9.60381,-5.7373,-3.1738,-0.3052,170.2,-5.3,132.9,1.11016,-1.60303,9.60381,-5.7373,3.1738,-0.3052,-350.2,-5.3,132.9,-2667,2572,18597,26.51
220,2026-03-06T18:43:59.694000,18:43:59.694,1.26328,1.21064,-9.5751,2.5635,-2.6245,0.4883,170.3,-5.5,132.8,1.26328,-1.21064,9.5751,2.5635,2.6245,0.4883,-350.3,-5.5,132.8,-2683,2572,18595,26.45
221,2026-03-06T18:43:59.794000,18:43:59.794,0.68428,1.64609,-9.53682,0.0,0.9155,0.6104,169.9,-5.1,132.8,0.68428,-1.64609,9.53682,0.0,-0.9155,0.6104,-349.9,-5.1,132.8,-2590,2550,18631,26.57
222,2026-03-06T18:43:59.894000,18:43:59.894,0.87568,1.26328,-9.4459,-2.9297,-2.8076,-0.3662,170.0,-5.0,132.7,0.87568,-1.26328,9.4459,-2.9297,2.8076,-0.3662,-350.0,-5.0,132.7,-2605,2528,18638,26.51
223,2026-03-06T18:43:59.994000,18:43:59.994,0.98574,1.17236,-10.11104,-2.1362,-3.6621,-0.2441,170.2,-5.1,132.6,0.98574,-1.17236,10.11104,-2.1362,3.6621,-0.2441,-350.2,-5.1,132.6,-2596,2540,18621,26.64
224,2026-03-06T18:44:00.094000,18:44:00.094,0.86611,1.23457,-9.34063,3.0518,1.3428,2.3193,170.3,-5.1,132.5,0.86611,-1.23457,9.34063,3.0518,-1.3428,2.3193,-350.3,-5.1,132.5,-2567,2554,18649,26.64
225,2026-03-06T18:44:00.194000,18:44:00.194,0.89482,1.47861,-9.32627,-0.4883,2.9297,1.5259,170.4,-5.0,132.4,0.89482,-1.47861,9.32627,-0.4883,-2.9297,1.5259,-350.4,-5.0,132.4,-2587,2615,18632,26.57
226,2026-03-06T18:44:00.293000,18:44:00.293,0.90918,1.20107,-10.12061,-4.2725,-6.4697,-1.0376,170.7,-5.1,132.3,0.90918,-1.20107,10.12061,-4.2725,6.4697,-1.0376,-350.7,-5.1,132.3,-2679,2615,18624,26.57
227,2026-03-06T18:44:00.393000,18:44:00.393,0.81826,1.17715,-9.42197,-0.6714,-0.7324,1.5869,170.8,-5.1,132.2,0.81826,-1.17715,9.42197,-0.6714,0.7324,1.5869,-350.8,-5.1,132.2,-2676,2614,18642,26.57
228,2026-03-06T18:44:00.493000,18:44:00.493,0.77041,1.23936,-9.42676,3.0518,4.2114,2.1362,170.9,-5.0,132.0,0.77041,-1.23936,9.42676,3.0518,-4.2114,2.1362,-350.9,-5.0,132.0,-2672,2603,18692,26.57
229,2026-03-06T18:44:00.593000,18:44:00.593,1.02402,0.78477,-10.13496,-5.188,-3.6621,-0.9155,171.2,-5.1,132.0,1.02402,-0.78477,10.13496,-5.188,3.6621,-0.9155,-351.2,-5.1,132.0,-2721,2613,18708,26.45
230,2026-03-06T18:44:00.693000,18:44:00.693,1.10059,0.66035,-9.75693,1.709,-1.5869,1.3428,171.1,-5.0,131.9,1.10059,-0.66035,9.75693,1.709,1.5869,1.3428,-351.1,-5.0,131.9,-2679,2547,18741,26.57
231,2026-03-06T18:44:00.792000,18:44:00.792,0.83262,1.0001,-9.75215,-0.9155,-0.3052,1.0986,171.1,-4.8,131.8,0.83262,-1.0001,9.75215,-0.9155,0.3052,1.0986,-351.1,-4.8,131.8,-2622,2485,18721,26.45
232,2026-03-06T18:44:00.892000,18:44:00.892,0.62686,0.56943,-9.88613,0.7935,-3.6621,-0.5493,171.7,-4.7,131.7,0.62686,-0.56943,9.88613,0.7935,3.6621,-0.5493,-351.7,-4.7,131.7,-2535,2473,18675,26.57
233,2026-03-06T18:44:00.992000,18:44:00.992,0.7082,0.39717,-10.08711,0.3052,0.1221,0.4272,172.0,-4.7,131.7,0.7082,-0.39717,10.08711,0.3052,-0.1221,0.4272,-352.0,-4.7,131.7,-2443,2560,18719,26.57
234,2026-03-06T18:44:01.092000,18:44:01.092,1.225,0.66035,-9.39805,-3.7842,1.6479,2.5024,171.8,-4.6,131.6,1.225,-0.66035,9.39805,-3.7842,-1.6479,2.5024,-351.8,-4.6,131.6,-2444,2531,18704,26.38
235,2026-03-06T18:44:01.192000,18:44:01.192,1.05273,0.26318,-10.21631,-3.3569,-12.6343,-1.5869,172.2,-4.4,131.4,1.05273,-0.26318,10.21631,-3.3569,12.6343,-1.5869,-352.2,-4.4,131.4,-2445,2493,18714,26.7
236,2026-03-06T18:44:01.292000,18:44:01.292,0.22969,0.19141,-9.11094,3.2959,-1.6479,0.3052,172.4,-3.8,131.5,0.22969,-0.19141,9.11094,3.2959,1.6479,0.3052,-352.4,-3.8,131.5,-2282,2469,18754,26.7
237,2026-03-06T18:44:01.391000,18:44:01.391,0.1627,0.27275,-10.03447,-2.1362,-3.1128,-0.8545,173.0,-3.5,131.4,0.1627,-0.27275,10.03447,-2.1362,3.1128,-0.8545,-353.0,-3.5,131.4,-2223,2559,18766,26.57
238,2026-03-06T18:44:01.491000,18:44:01.491,1.23457,-0.13398,-10.33594,0.1221,4.9438,1.6479,173.4,-4.0,131.3,1.23457,0.13398,10.33594,0.1221,-4.9438,1.6479,-353.4,-4.0,131.3,-2234,2571,18742,26.7
239,2026-03-06T18:44:01.591000,18:44:01.591,0.97617,0.24883,-9.63252,2.2583,-2.0752,1.6479,173.4,-3.9,131.2,0.97617,-0.24883,9.63252,2.2583,2.0752,1.6479,-353.4,-3.9,131.2,-2306,2497,18707,26.64
240,2026-03-06T18:44:01.691000,18:44:01.691,0.39717,0.22012,-9.95312,-1.2207,-6.1646,0.4272,173.7,-3.4,131.1,0.39717,-0.22012,9.95312,-1.2207,6.1646,0.4272,-353.7,-3.4,131.1,-2240,2481,18755,26.51
241,2026-03-06T18:44:01.791000,18:44:01.791,0.3876,0.21533,-9.33105,4.2114,1.2817,1.2817,174.0,-3.2,131.1,0.3876,-0.21533,9.33105,4.2114,-1.2817,1.2817,-354.0,-3.2,131.1,-2186,2469,18790,26.7
242,2026-03-06T18:44:01.890000,18:44:01.890,0.66514,0.13877,-10.03926,-3.479,-2.4414,-0.6714,174.5,-3.3,131.0,0.66514,-0.13877,10.03926,-3.479,2.4414,-0.6714,-354.5,-3.3,131.0,-2208,2553,18781,26.64
243,2026-03-06T18:44:01.990000,18:44:01.990,0.45459,0.2584,-9.9627,1.5259,0.1831,1.77,174.7,-3.2,131.0,0.45459,-0.2584,9.9627,1.5259,-0.1831,1.77,-354.7,-3.2,131.0,-2170,2530,18824,26.76
244,2026-03-06T18:44:02.090000,18:44:02.090,0.82783,0.17705,-10.12061,-0.9155,0.4272,0.9155,174.9,-3.2,130.9,0.82783,-0.17705,10.12061,-0.9155,-0.4272,0.9155,-354.9,-3.2,130.9,-2198,2548,18833,26.64
245,2026-03-06T18:44:02.190000,18:44:02.190,0.69863,0.26318,-9.71865,1.0376,-0.5493,0.5493,175.0,-3.2,130.8,0.69863,-0.26318,9.71865,1.0376,0.5493,0.5493,-355.0,-3.2,130.8,-2245,2490,18812,26.64
246,2026-03-06T18:44:02.290000,18:44:02.290,0.45938,0.39717,-9.79521,-2.1973,-3.1738,0.4272,175.2,-3.0,130.8,0.45938,-0.39717,9.79521,-2.1973,3.1738,0.4272,-355.2,-3.0,130.8,-2214,2520,18829,26.76
247,2026-03-06T18:44:02.390000,18:44:02.390,0.59814,0.43545,-9.63252,5.249,3.1128,2.1362,175.7,-3.1,130.6,0.59814,-0.43545,9.63252,5.249,-3.1128,2.1362,-355.7,-3.1,130.6,-2189,2559,18841,26.64
248,2026-03-06T18:44:02.489000,18:44:02.489,0.53115,0.2584,-9.81914,1.4038,-0.5493,-0.6714,176.0,-3.2,130.7,0.53115,-0.2584,9.81914,1.4038,0.5493,-0.6714,-356.0,-3.2,130.7,-2248,2699,18852,26.64
249,2026-03-06T18:44:02.589000,18:44:02.589,0.24883,0.26797,-9.64688,-3.0518,-2.8076,0.5493,176.1,-2.9,130.7,0.24883,-0.26797,9.64688,-3.0518,2.8076,0.5493,-356.1,-2.9,130.7,-2240,2734,18821,26.64
250,2026-03-06T18:44:02.689000,18:44:02.689,1.00967,0.21055,-9.9627,0.3052,0.1831,1.2817,176.3,-3.2,130.6,1.00967,-0.21055,9.9627,0.3052,-0.1831,1.2817,-356.3,-3.2,130.6,-2266,2682,18800,26.57
251,2026-03-06T18:44:02.789000,18:44:02.789,0.47373,0.43545,-10.26895,-2.0752,-3.1128,-0.3052,176.1,-3.0,130.5,0.47373,-0.43545,10.26895,-2.0752,3.1128,-0.3052,-356.1,-3.0,130.5,-2262,2637,18801,26.7
252,2026-03-06T18:44:02.889000,18:44:02.889,0.91875,0.31104,-10.0249,2.8076,0.9766,2.1362,176.2,-3.1,130.4,0.91875,-0.31104,10.0249,2.8076,-0.9766,2.1362,-356.2,-3.1,130.4,-2250,2610,18828,26.7
253,2026-03-06T18:44:02.989000,18:44:02.989,0.47852,0.37324,-9.87178,-0.8545,-4.6387,-0.9766,176.4,-3.0,130.4,0.47852,-0.37324,9.87178,-0.8545,4.6387,-0.9766,-356.4,-3.0,130.4,-2246,2660,18820,26.51
254,2026-03-06T18:44:03.089000,18:44:03.089,0.46895,0.35889,-9.61338,0.4883,-0.3052,2.0142,176.5,-2.8,130.3,0.46895,-0.35889,9.61338,0.4883,0.3052,2.0142,-356.5,-2.8,130.3,-2191,2713,18874,26.64
255,2026-03-06T18:44:03.188000,18:44:03.188,0.62686,0.3876,-9.65645,0.1831,0.8545,0.7324,176.6,-2.9,130.3,0.62686,-0.3876,9.65645,0.1831,-0.8545,0.7324,-356.6,-2.9,130.3,-2223,2710,18833,26.7
256,2026-03-06T18:44:03.288000,18:44:03.288,0.43545,0.26797,-9.4459,-0.9155,-0.4883,0.4272,176.6,-2.8,130.3,0.43545,-0.26797,9.4459,-0.9155,0.4883,0.4272,-356.6,-2.8,130.3,-2241,2686,18806,26.7
257,2026-03-06T18:44:03.389000,18:44:03.389,1.01445,0.27275,-10.08711,-1.6479,0.9766,0.6104,176.6,-2.9,130.2,1.01445,-0.27275,10.08711,-1.6479,-0.9766,0.6104,-356.6,-2.9,130.2,-2227,2637,18797,26.64
258,2026-03-06T18:44:03.488000,18:44:03.488,0.31104,0.28711,-9.75215,1.2207,-3.2349,0.2441,176.7,-2.8,130.2,0.31104,-0.28711,9.75215,1.2207,3.2349,0.2441,-356.7,-2.8,130.2,-2229,2643,18825,26.51
259,2026-03-06T18:44:03.587000,18:44:03.587,0.579,0.09092,-9.94355,1.4038,2.1973,1.4038,176.8,-2.6,130.1,0.579,-0.09092,9.94355,1.4038,-2.1973,1.4038,-356.8,-2.6,130.1,-2136,2667,18832,26.7
260,2026-03-06T18:44:03.687000,18:44:03.687,0.4498,0.28711,-9.67559,-4.2725,-1.4648,0.7324,176.8,-2.6,130.0,0.4498,-0.28711,9.67559,-4.2725,1.4648,0.7324,-356.8,-2.6,130.0,-2173,2686,18836,26.76
261,2026-03-06T18:44:03.787000,18:44:03.787,1.15801,-0.14355,-9.87178,-2.2583,0.9155,-0.8545,176.9,-2.9,130.0,1.15801,0.14355,9.87178,-2.2583,-0.9155,-0.8545,-356.9,-2.9,130.0,-2212,2663,18826,26.7
262,2026-03-06T18:44:03.887000,18:44:03.887,0.39717,0.23447,-9.85742,-2.5635,-4.2725,-0.3052,176.7,-2.7,130.0,0.39717,-0.23447,9.85742,-2.5635,4.2725,-0.3052,-356.7,-2.7,130.0,-2232,2557,18734,26.57
263,2026-03-06T18:44:03.987000,18:44:03.987,0.36846,0.07178,-10.03447,0.5493,-1.0376,0.3052,177.0,-2.5,129.9,0.36846,-0.07178,10.03447,0.5493,1.0376,0.3052,-357.0,-2.5,129.9,-2158,2556,18804,26.64
264,2026-03-06T18:44:04.086000,18:44:04.086,0.36367,0.16748,-10.00576,-0.3052,0.9766,0.3662,177.1,-2.5,129.9,0.36367,-0.16748,10.00576,-0.3052,-0.9766,0.3662,-357.1,-2.5,129.9,-2127,2625,18827,26.64
265,2026-03-06T18:44:04.186000,18:44:04.186,0.55508,0.18662,-10.16367,-2.8076,1.8921,1.3428,177.1,-2.6,129.8,0.55508,-0.18662,10.16367,-2.8076,-1.8921,1.3428,-357.1,-2.6,129.8,-2136,2639,18800,26.82
266,2026-03-06T18:44:04.286000,18:44:04.286,1.20586,0.43066,-9.55596,-4.0894,2.5635,1.9531,177.0,-3.0,129.7,1.20586,-0.43066,9.55596,-4.0894,-2.5635,1.9531,-357.0,-3.0,129.7,-2227,2629,18790,26.57
267,2026-03-06T18:44:04.386000,18:44:04.386,0.30146,0.59814,-9.87178,-0.8545,-4.6387,-1.5259,176.7,-2.8,129.7,0.30146,-0.59814,9.87178,-0.8545,4.6387,-1.5259,-356.7,-2.8,129.7,-2241,2591,18860,26.57
268,2026-03-06T18:44:04.486000,18:44:04.486,0.66035,0.45938,-9.79043,-1.77,-1.2207,1.2207,176.6,-2.7,129.7,0.66035,-0.45938,9.79043,-1.77,1.2207,1.2207,-356.6,-2.7,129.7,-2183,2549,18841,26.7
269,2026-03-06T18:44:04.586000,18:44:04.586,0.33496,0.63643,-9.87656,-0.7935,-1.0986,-0.7324,176.7,-2.6,129.7,0.33496,-0.63643,9.87656,-0.7935,1.0986,-0.7324,-356.7,-2.6,129.7,-2190,2540,18809,26.7
270,2026-03-06T18:44:04.685000,18:44:04.685,0.55986,0.84697,-9.73301,-0.9155,1.2207,2.5024,176.6,-2.6,129.6,0.55986,-0.84697,9.73301,-0.9155,-1.2207,2.5024,-356.6,-2.6,129.6,-2199,2551,18831,26.82
271,2026-03-06T18:44:04.785000,18:44:04.785,0.95225,1.03359,-9.51289,-0.1831,2.0142,0.6714,176.5,-2.9,129.4,0.95225,-1.03359,9.51289,-0.1831,-2.0142,0.6714,-356.5,-2.9,129.4,-2232,2598,18889,26.7
272,2026-03-06T18:44:04.885000,18:44:04.885,0.47852,0.92354,-9.87656,-3.54,-4.8218,-1.5259,176.2,-2.7,129.5,0.47852,-0.92354,9.87656,-3.54,4.8218,-1.5259,-356.2,-2.7,129.5,-2229,2556,18886,26.7
273,2026-03-06T18:44:04.985000,18:44:04.985,0.6125,0.83262,-10.02969,-0.2441,-2.1973,0.9766,176.1,-2.6,129.5,0.6125,-0.83262,10.02969,-0.2441,2.1973,0.9766,-356.1,-2.6,129.5,-2183,2474,18811,26.7
274,2026-03-06T18:44:05.085000,18:44:05.085,0.45459,1.04795,-9.78564,-2.5635,2.0142,1.1597,175.9,-2.6,129.4,0.45459,-1.04795,9.78564,-2.5635,-2.0142,1.1597,-355.9,-2.6,129.4,-2131,2418,18777,26.57
275,2026-03-06T18:44:05.184000,18:44:05.184,0.81826,1.21543,-9.52246,-0.061,2.7466,2.5024,175.5,-2.8,129.2,0.81826,-1.21543,9.52246,-0.061,-2.7466,2.5024,-355.5,-2.8,129.2,-2152,2393,18807,26.7
276,2026-03-06T18:44:05.284000,18:44:05.284,0.98096,1.46426,-9.3167,-0.7935,-2.9907,1.1597,175.2,-3.0,129.1,0.98096,-1.46426,9.3167,-0.7935,2.9907,1.1597,-355.2,-3.0,129.1,-2196,2381,18809,26.7
277,2026-03-06T18:44:05.384000,18:44:05.384,0.67471,1.86143,-9.59902,0.7324,0.8545,1.709,175.1,-2.9,129.0,0.67471,-1.86143,9.59902,0.7324,-0.8545,1.709,-355.1,-2.9,129.0,-2139,2410,18833,26.7
278,2026-03-06T18:44:05.484000,18:44:05.484,0.71299,2.19639,-9.7043,1.4038,-3.2349,0.9155,174.6,-3.0,128.8,0.71299,-2.19639,9.7043,1.4038,3.2349,0.9155,-354.6,-3.0,128.8,-2168,2407,18870,26.64
279,2026-03-06T18:44:05.584000,18:44:05.584,0.71299,1.94277,-9.7665,-2.2583,-1.4038,0.1221,174.2,-2.7,128.8,0.71299,-1.94277,9.7665,-2.2583,1.4038,0.1221,-354.2,-2.7,128.8,-2105,2358,18786,26.7
280,2026-03-06T18:44:05.684000,18:44:05.684,0.85654,1.97148,-9.72822,-1.2817,-1.8921,0.6714,173.7,-2.6,128.7,0.85654,-1.97148,9.72822,-1.2817,1.8921,0.6714,-353.7,-2.6,128.7,-2067,2307,18794,26.51
281,2026-03-06T18:44:05.783000,18:44:05.783,0.55508,1.98105,-9.49854,-0.8545,-6.2256,2.9297,173.4,-2.2,128.5,0.55508,-1.98105,9.49854,-0.8545,6.2256,2.9297,-353.4,-2.2,128.5,-1970,2238,18661,26.7
282,2026-03-06T18:44:05.883000,18:44:05.883,0.65557,2.17246,-9.47939,3.0518,-0.4272,0.7935,172.8,-2.2,128.4,0.65557,-2.17246,9.47939,3.0518,0.4272,0.7935,-352.8,-2.2,128.4,-1871,2237,18725,26.7
283,2026-03-06T18:44:05.983000,18:44:05.983,0.4498,2.27773,-9.5751,-2.3193,-1.0986,1.8311,172.6,-2.1,128.3,0.4498,-2.27773,9.5751,-2.3193,1.0986,1.8311,-352.6,-2.1,128.3,-1823,2271,18736,26.76
284,2026-03-06T18:44:06.083000,18:44:06.083,0.64121,2.67012,-9.27842,0.3662,1.5869,1.709,172.5,-2.4,128.0,0.64121,-2.67012,9.27842,0.3662,-1.5869,1.709,-352.5,-2.4,128.0,-1877,2281,18654,26.64
285,2026-03-06T18:44:06.183000,18:44:06.183,0.93789,2.8376,-9.40283,-0.7935,-1.5869,0.7324,172.0,-2.4,127.9,0.93789,-2.8376,9.40283,-0.7935,1.5869,0.7324,-352.0,-2.4,127.9,-1941,2299,18611,26.7
286,2026-03-06T18:44:06.282000,18:44:06.282,0.82305,2.87109,-9.38848,-5.188,-8.1787,-2.8076,171.2,-2.1,127.9,0.82305,-2.87109,9.38848,-5.188,8.1787,-2.8076,-351.2,-2.1,127.9,-1926,2263,18645,26.7
287,2026-03-06T18:44:06.382000,18:44:06.382,0.32539,2.96201,-9.29277,4.6997,-3.9673,0.3052,170.8,-1.6,127.8,0.32539,-2.96201,9.29277,4.6997,3.9673,0.3052,-350.8,-1.6,127.8,-1765,2233,18729,26.76
288,2026-03-06T18:44:06.482000,18:44:06.482,0.55508,2.98594,-9.45068,3.2959,0.5493,1.4038,170.7,-1.5,127.7,0.55508,-2.98594,9.45068,3.2959,-0.5493,1.4038,-350.7,-1.5,127.7,-1649,2369,18734,26.64
289,2026-03-06T18:44:06.582000,18:44:06.582,0.66035,2.82803,-9.18271,2.5635,-1.1597,0.9155,170.4,-1.6,127.5,0.66035,-2.82803,9.18271,2.5635,1.1597,0.9155,-350.4,-1.6,127.5,-1622,2503,18781,26.64
290,2026-03-06T18:44:06.682000,18:44:06.682,0.19141,2.88545,-9.4459,-2.5024,-2.6245,0.2441,170.0,-1.4,127.5,0.19141,-2.88545,9.4459,-2.5024,2.6245,0.2441,-350.0,-1.4,127.5,-1567,2546,18794,26.57
291,2026-03-06T18:44:06.782000,18:44:06.782,0.67471,2.86631,-9.25449,0.8545,1.8311,2.8687,169.5,-1.5,127.3,0.67471,-2.86631,9.25449,0.8545,-1.8311,2.8687,-349.5,-1.5,127.3,-1542,2517,18825,26.7
292,2026-03-06T18:44:06.881000,18:44:06.881,0.60293,3.00029,-9.36934,-2.3804,-1.4038,-0.3662,168.9,-1.6,127.1,0.60293,-3.00029,9.36934,-2.3804,1.4038,-0.3662,-348.9,-1.6,127.1,-1562,2510,18762,26.57
293,2026-03-06T18:44:06.981000,18:44:06.981,0.43066,2.72275,-9.6708,0.3662,0.9155,1.5259,168.6,-1.7,127.1,0.43066,-2.72275,9.6708,0.3662,-0.9155,1.5259,-348.6,-1.7,127.1,-1556,2452,18733,26.7
294,2026-03-06T18:44:07.081000,18:44:07.081,0.43066,3.22998,-9.04395,4.1504,5.3711,2.6855,168.2,-1.9,127.0,0.43066,-3.22998,9.04395,4.1504,-5.3711,2.6855,-348.2,-1.9,127.0,-1555,2453,18763,26.76
295,2026-03-06T18:44:07.181000,18:44:07.181,1.37334,3.01943,-9.61816,-2.5024,3.6621,0.9155,168.0,-2.5,126.9,1.37334,-3.01943,9.61816,-2.5024,-3.6621,0.9155,-348.0,-2.5,126.9,-1626,2591,18743,26.7
296,2026-03-06T18:44:07.281000,18:44:07.281,1.22021,3.50752,-9.21143,-4.6997,1.2817,-0.2441,167.0,-2.9,126.9,1.22021,-3.50752,9.21143,-4.6997,-1.2817,-0.2441,-347.0,-2.9,126.9,-1730,2527,18706,26.76
297,2026-03-06T18:44:07.380000,18:44:07.380,1.41641,3.44053,-9.39326,-0.061,-1.8311,-2.1362,166.5,-3.0,127.0,1.41641,-3.44053,9.39326,-0.061,1.8311,-2.1362,-346.5,-3.0,127.0,-1763,2402,18707,26.76
298,2026-03-06T18:44:07.480000,18:44:07.480,1.05273,3.48359,-9.22578,5.0659,-2.2583,-5.0049,166.3,-3.0,127.3,1.05273,-3.48359,9.22578,5.0659,2.2583,-5.0049,-346.3,-3.0,127.3,-1722,2385,18709,26.82
299,2026-03-06T18:44:07.580000,18:44:07.580,1.0623,3.20127,-9.49854,-3.1738,-0.9155,-6.1035,165.9,-2.9,127.8,1.0623,-3.20127,9.49854,-3.1738,0.9155,-6.1035,-345.9,-2.9,127.8,-1681,2373,18691,26.82
300,2026-03-06T18:44:07.680000,18:44:07.680,1.54082,3.07686,-9.37412,-1.5259,-1.5259,-5.188,165.6,-3.1,128.3,1.54082,-3.07686,9.37412,-1.5259,1.5259,-5.188,-345.6,-3.1,128.3,-1600,2317,18694,26.82
301,2026-03-06T18:44:07.780000,18:44:07.780,1.6748,2.98115,-9.23535,3.1128,2.6245,-7.4463,165.2,-3.3,128.9,1.6748,-2.98115,9.23535,3.1128,-2.6245,-7.4463,-345.2,-3.3,128.9,-1557,2253,18706,26.7
302,2026-03-06T18:44:07.880000,18:44:07.880,1.51211,2.66055,-9.20186,0.5493,1.2817,-10.1929,165.0,-3.5,129.8,1.51211,-2.66055,9.20186,0.5493,-1.2817,-10.1929,-345.0,-3.5,129.8,-1581,2316,18736,26.76
303,2026-03-06T18:44:07.979000,18:44:07.979,1.55518,2.5457,-9.26406,0.3662,0.4883,-10.498,165.1,-3.7,130.8,1.55518,-2.5457,9.26406,0.3662,-0.4883,-10.498,-345.1,-3.7,130.8,-1620,2290,18693,26.76
304,2026-03-06T18:44:08.079000,18:44:08.079,1.36855,2.32559,-9.3167,1.9531,1.8921,-12.7563,165.1,-3.8,132.0,1.36855,-2.32559,9.3167,1.9531,-1.8921,-12.7563,-345.1,-3.8,132.0,-1588,2266,18671,26.51
305,2026-03-06T18:44:08.179000,18:44:08.179,1.68916,2.37822,-9.5416,1.709,8.667,-10.6201,165.2,-4.3,133.2,1.68916,-2.37822,9.5416,1.709,-8.667,-10.6201,-345.2,-4.3,133.2,-1637,2206,18643,26.7
306,2026-03-06T18:44:08.279000,18:44:08.279,1.94756,2.13418,-9.5751,0.4272,3.3569,-13.3667,165.3,-5.0,134.5,1.94756,-2.13418,9.5751,0.4272,-3.3569,-13.3667,-345.3,-5.0,134.5,-1739,2207,18596,26.7
307,2026-03-06T18:44:08.379000,18:44:08.379,1.9332,2.1916,-9.91484,-4.3335,1.0376,-14.2212,165.1,-5.2,135.9,1.9332,-2.1916,9.91484,-4.3335,-1.0376,-14.2212,-345.1,-5.2,135.9,-1745,2198,18652,26.64
308,2026-03-06T18:44:08.479000,18:44:08.479,1.7083,2.10068,-9.63252,2.5024,2.5024,-14.0991,165.2,-5.2,137.3,1.7083,-2.10068,9.63252,2.5024,-2.5024,-14.0991,-345.2,-5.2,137.3,-1733,2114,18671,26.82
309,2026-03-06T18:44:08.578000,18:44:08.578,2.08633,2.32559,-9.30234,0.061,0.4272,-14.0991,164.8,-5.2,138.8,2.08633,-2.32559,9.30234,0.061,-0.4272,-14.0991,-344.8,-5.2,138.8,-1696,1957,18645,26.7
310,2026-03-06T18:44:08.678000,18:44:08.678,1.71309,2.25859,-9.46504,-4.8218,-2.4414,-15.4419,165.0,-5.2,140.1,1.71309,-2.25859,9.46504,-4.8218,2.4414,-15.4419,-345.0,-5.2,140.1,-1659,1942,18639,26.76
311,2026-03-06T18:44:08.778000,18:44:08.778,1.78486,2.30645,-9.0248,1.2207,4.8218,-16.2354,164.8,-5.2,141.7,1.78486,-2.30645,9.0248,1.2207,-4.8218,-16.2354,-344.8,-5.2,141.7,-1587,1850,18656,26.76
312,2026-03-06T18:44:08.878000,18:44:08.878,2.03848,2.5792,-9.30713,-1.4038,1.3428,-15.1367,164.6,-5.5,143.3,2.03848,-2.5792,9.30713,-1.4038,-1.3428,-15.1367,-344.6,-5.5,143.3,-1558,1786,18590,26.89
313,2026-03-06T18:44:08.978000,18:44:08.978,2.29209,2.22031,-9.75693,-1.8311,3.2349,-17.5781,164.5,-5.8,145.0,2.29209,-2.22031,9.75693,-1.8311,-3.2349,-17.5781,-344.5,-5.8,145.0,-1564,1713,18535,26.76
314,2026-03-06T18:44:09.077000,18:44:09.077,2.00977,2.24902,-9.4459,0.9766,2.1973,-16.1133,164.4,-5.7,146.7,2.00977,-2.24902,9.4459,0.9766,-2.1973,-16.1133,-344.4,-5.7,146.7,-1554,1589,18492,26.7
315,2026-03-06T18:44:09.177000,18:44:09.177,1.94756,2.45479,-9.24971,4.5166,2.3193,-16.7236,164.4,-5.8,148.4,1.94756,-2.45479,9.24971,4.5166,-2.3193,-16.7236,-344.4,-5.8,148.4,-1508,1502,18528,26.82
316,2026-03-06T18:44:09.277000,18:44:09.277,1.78486,2.29688,-9.48418,0.6104,0.7324,-18.1274,164.6,-5.9,150.2,1.78486,-2.29688,9.48418,0.6104,-0.7324,-18.1274,-344.6,-5.9,150.2,-1482,1454,18546,26.82
317,2026-03-06T18:44:09.377000,18:44:09.377,1.82793,2.3208,-8.93389,6.7749,5.9204,-15.8691,164.8,-6.2,152.0,1.82793,-2.3208,8.93389,6.7749,-5.9204,-15.8691,-344.8,-6.2,152.0,-1414,1371,18527,26.82
318,2026-03-06T18:44:09.477000,18:44:09.477,2.12461,2.37344,-9.64688,-2.3193,4.2114,-18.6157,164.7,-6.4,153.8,2.12461,-2.37344,9.64688,-2.3193,-4.2114,-18.6157,-344.7,-6.4,153.8,-1365,1254,18478,26.82
319,2026-03-06T18:44:09.576000,18:44:09.576,2.71797,1.83271,-9.87178,-0.3052,0.7324,-16.5405,164.9,-6.7,155.6,2.71797,-1.83271,9.87178,-0.3052,-0.7324,-16.5405,-344.9,-6.7,155.6,-1354,1074,18382,26.7
320,2026-03-06T18:44:09.676000,18:44:09.676,2.76582,2.11504,-9.07744,6.6528,6.8359,-17.4561,165.0,-7.1,157.3,2.76582,-2.11504,9.07744,6.6528,-6.8359,-17.4561,-345.0,-7.1,157.3,-1348,986,18348,26.7
321,2026-03-06T18:44:09.776000,18:44:09.776,1.73701,2.15811,-8.85732,0.4883,-2.5024,-21.6675,165.0,-6.9,159.3,1.73701,-2.15811,8.85732,0.4883,2.5024,-21.6675,-345.0,-6.9,159.3,-1283,1014,18430,26.76
322,2026-03-06T18:44:09.876000,18:44:09.876,1.79443,1.94756,-9.16836,0.9766,4.0283,-20.2637,165.3,-7.1,161.4,1.79443,-1.94756,9.16836,0.9766,-4.0283,-20.2637,-345.3,-7.1,161.4,-1158,991,18457,26.82
323,2026-03-06T18:44:09.976000,18:44:09.976,2.13896,1.81357,-10.16367,-3.1738,8.0566,-19.2871,165.4,-7.7,163.5,2.13896,-1.81357,10.16367,-3.1738,-8.0566,-19.2871,-345.4,-7.7,163.5,-1140,989,18435,26.89
324,2026-03-06T18:44:10.076000,18:44:10.076,3.01943,1.81836,-9.93398,2.9297,9.1553,-15.9912,165.1,-8.3,165.5,3.01943,-1.81836,9.93398,2.9297,-9.1553,-15.9912,-345.1,-8.3,165.5,-1182,848,18391,26.76
325,2026-03-06T18:44:10.175000,18:44:10.175,3.46924,1.89014,-9.47461,1.8311,5.6152,-15.686,165.1,-8.9,167.3,3.46924,-1.89014,9.47461,1.8311,-5.6152,-15.686,-345.1,-8.9,167.3,-1251,710,18331,26.7
326,2026-03-06T18:44:10.275000,18:44:10.275,3.12949,1.70352,-8.74727,1.0376,-2.9297,-23.2544,165.5,-9.3,169.3,3.12949,-1.70352,8.74727,1.0376,2.9297,-23.2544,-345.5,-9.3,169.3,-1276,678,18266,26.7
327,2026-03-06T18:44:10.375000,18:44:10.375,2.11025,1.80879,-9.01523,-1.8311,-1.8311,-24.7803,165.2,-9.0,171.7,2.11025,-1.80879,9.01523,-1.8311,1.8311,-24.7803,-345.2,-9.0,171.7,-1164,632,18321,26.82
328,2026-03-06T18:44:10.475000,18:44:10.475,2.17246,1.55518,-9.37891,2.8687,1.709,-19.7144,165.5,-8.8,173.9,2.17246,-1.55518,9.37891,2.8687,-1.709,-19.7144,-345.5,-8.8,173.9,-1002,600,18340,26.82
329,2026-03-06T18:44:10.575000,18:44:10.575,2.36387,2.10068,-10.06318,1.8311,7.9956,-20.0195,165.4,-9.1,175.9,2.36387,-2.10068,10.06318,1.8311,-7.9956,-20.0195,-345.4,-9.1,175.9,-867,504,18335,26.7
330,2026-03-06T18:44:10.674000,18:44:10.674,2.01934,1.81836,-9.62295,6.1035,3.7231,-18.9209,165.4,-9.3,178.1,2.01934,-1.81836,9.62295,6.1035,-3.7231,-18.9209,-345.4,-9.3,178.1,-790,454,18359,26.76
331,2026-03-06T18:44:10.774000,18:44:10.774,2.66055,2.00498,-9.5416,1.3428,9.1553,-17.8223,165.6,-9.6,-179.9,2.66055,-2.00498,9.5416,1.3428,-9.1553,-17.8223,-345.6,-9.6,-179.9,-760,429,18337,26.95
332,2026-03-06T18:44:10.874000,18:44:10.874,3.15342,1.54561,-9.12051,-9.1553,2.5635,-22.2778,165.3,-10.1,-177.8,3.15342,-1.54561,9.12051,-9.1553,-2.5635,-22.2778,-345.3,-10.1,-177.8,-810,313,18273,26.82
333,2026-03-06T18:44:10.974000,18:44:10.974,3.06729,1.84229,-9.27363,1.4648,3.2349,-19.4702,164.9,-10.3,-175.7,3.06729,-1.84229,9.27363,1.4648,-3.2349,-19.4702,-344.9,-10.3,-175.7,-708,54,18215,26.89
334,2026-03-06T18:44:11.075000,18:44:11.075,2.81846,1.76572,-9.32148,0.4272,4.9438,-20.2026,165.0,-10.7,-173.6,2.81846,-1.76572,9.32148,0.4272,-4.9438,-20.2026,-345.0,-10.7,-173.6,-634,32,18208,26.89
335,2026-03-06T18:44:11.174000,18:44:11.174,2.53135,2.0624,-9.35498,2.3804,1.2817,-19.2261,164.9,-10.7,-171.5,2.53135,-2.0624,9.35498,2.3804,-1.2817,-19.2261,-344.9,-10.7,-171.5,-591,15,18197,26.82
336,2026-03-06T18:44:11.274000,18:44:11.274,2.33994,2.07197,-9.61338,8.7891,2.0752,-20.9961,165.1,-10.6,-169.5,2.33994,-2.07197,9.61338,8.7891,-2.0752,-20.9961,-345.1,-10.6,-169.5,-466,36,18196,26.76
337,2026-03-06T18:44:11.374000,18:44:11.374,2.11504,1.77051,-9.42197,-1.4648,-2.5024,-18.1274,165.5,-10.3,-167.4,2.11504,-1.77051,9.42197,-1.4648,2.5024,-18.1274,-345.5,-10.3,-167.4,-317,169,18258,26.89
338,2026-03-06T18:44:11.473000,18:44:11.473,1.37813,2.10547,-9.33105,-0.3052,-2.0752,-15.5029,165.2,-10.0,-165.8,1.37813,-2.10547,9.33105,-0.3052,2.0752,-15.5029,-345.2,-10.0,-165.8,-176,145,18273,26.76
339,2026-03-06T18:44:11.573000,18:44:11.573,0.69863,2.31123,-9.5751,-1.3428,0.4272,-11.9629,165.1,-9.5,-164.4,0.69863,-2.31123,9.5751,-1.3428,-0.4272,-11.9629,-345.1,-9.5,-164.4,-85,130,18355,26.82
340,2026-03-06T18:44:11.673000,18:44:11.673,0.43066,2.26816,-9.34063,5.127,3.54,-8.1177,165.4,-9.4,-163.4,0.43066,-2.26816,9.34063,5.127,-3.54,-8.1177,-345.4,-9.4,-163.4,-91,139,18420,26.7
341,2026-03-06T18:44:11.772000,18:44:11.772,0.75127,2.19639,-9.57031,5.127,6.2256,-4.9438,165.7,-9.2,-162.6,0.75127,-2.19639,9.57031,5.127,-6.2256,-4.9438,-345.7,-9.2,-162.6,-112,202,18452,26.82
342,2026-03-06T18:44:11.872000,18:44:11.872,0.98574,2.14854,-9.64688,0.9766,1.4648,-2.8687,165.8,-9.2,-162.1,0.98574,-2.14854,9.64688,0.9766,-1.4648,-2.8687,-345.8,-9.2,-162.1,-231,271,18406,26.76
343,2026-03-06T18:44:11.972000,18:44:11.972,0.59814,2.26338,-9.51289,2.6245,0.8545,-1.5869,165.7,-8.7,-161.8,0.59814,-2.26338,9.51289,2.6245,-0.8545,-1.5869,-345.7,-8.7,-161.8,-240,289,18459,26.89
344,2026-03-06T18:44:12.072000,18:44:12.072,0.34453,2.23945,-9.33105,1.8921,-1.5869,-0.4272,165.9,-8.2,-161.7,0.34453,-2.23945,9.33105,1.8921,1.5869,-0.4272,-345.9,-8.2,-161.7,-225,274,18457,26.82
345,2026-03-06T18:44:12.173000,18:44:12.173,0.2584,2.43564,-9.17793,3.1128,-1.5259,-0.3662,166.1,-7.8,-161.7,0.2584,-2.43564,9.17793,3.1128,1.5259,-0.3662,-346.1,-7.8,-161.7,-201,296,18390,26.82
346,2026-03-06T18:44:12.272000,18:44:12.272,0.56943,2.31602,-9.27842,-7.3242,0.7324,1.5259,166.0,-7.3,-161.7,0.56943,-2.31602,9.27842,-7.3242,-0.7324,1.5259,-346.0,-7.3,-161.7,-180,307,18408,26.76
347,2026-03-06T18:44:12.372000,18:44:12.372,0.82783,2.18682,-9.8,-1.0986,0.3662,-2.1362,166.2,-7.5,-161.7,0.82783,-2.18682,9.8,-1.0986,-0.3662,-2.1362,-346.2,-7.5,-161.7,-247,271,18429,26.89
348,2026-03-06T18:44:12.472000,18:44:12.472,1.4499,2.10068,-9.56074,0.9155,7.3853,1.2817,166.3,-7.7,-161.5,1.4499,-2.10068,9.56074,0.9155,-7.3853,1.2817,-346.3,-7.7,-161.5,-298,293,18405,26.82
349,2026-03-06T18:44:12.572000,18:44:12.572,1.4499,2.29688,-9.42197,-1.0986,-3.1128,-0.8545,166.3,-7.8,-161.5,1.4499,-2.29688,9.42197,-1.0986,3.1128,-0.8545,-346.3,-7.8,-161.5,-411,333,18401,26.76
350,2026-03-06T18:44:12.672000,18:44:12.672,1.18193,1.88535,-9.64688,-0.4272,-3.2959,-2.3193,166.6,-7.7,-161.3,1.18193,-1.88535,9.64688,-0.4272,3.2959,-2.3193,-346.6,-7.7,-161.3,-421,329,18383,26.82
351,2026-03-06T18:44:12.771000,18:44:12.771,1.09102,2.17725,-9.25928,-2.0752,0.8545,-0.9766,166.2,-7.5,-161.1,1.09102,-2.17725,9.25928,-2.0752,-0.8545,-0.9766,-346.2,-7.5,-161.1,-323,265,18388,26.89
352,2026-03-06T18:44:12.871000,18:44:12.871,1.71309,2.16768,-9.88135,1.2817,5.0659,-2.9297,166.2,-7.7,-160.8,1.71309,-2.16768,9.88135,1.2817,-5.0659,-2.9297,-346.2,-7.7,-160.8,-315,210,18357,27.01
353,2026-03-06T18:44:12.970000,18:44:12.970,1.69395,1.95234,-9.57988,2.1362,-3.1738,-3.6621,166.2,-7.9,-160.4,1.69395,-1.95234,9.57988,2.1362,3.1738,-3.6621,-346.2,-7.9,-160.4,-387,148,18279,26.82
354,2026-03-06T18:44:13.070000,18:44:13.070,0.78477,2.03369,-9.52246,1.9531,-1.6479,-3.9673,166.2,-7.4,-160.1,0.78477,-2.03369,9.52246,1.9531,1.6479,-3.9673,-346.2,-7.4,-160.1,-318,115,18317,26.76
355,2026-03-06T18:44:13.170000,18:44:13.170,0.61729,2.02412,-9.59902,1.3428,-0.5493,-1.2207,166.5,-7.2,-159.9,0.61729,-2.02412,9.59902,1.3428,0.5493,-1.2207,-346.5,-7.2,-159.9,-270,183,18344,26.89
356,2026-03-06T18:44:13.270000,18:44:13.270,0.69863,1.91406,-9.82871,5.6152,1.2207,-0.6104,167.0,-7.1,-159.7,0.69863,-1.91406,9.82871,5.6152,-1.2207,-0.6104,-347.0,-7.1,-159.7,-267,220,18365,26.95
357,2026-03-06T18:44:13.370000,18:44:13.370,0.646,1.93799,-9.69473,0.5493,0.7935,0.5493,167.0,-6.9,-159.6,0.646,-1.93799,9.69473,0.5493,-0.7935,0.5493,-347.0,-6.9,-159.6,-261,306,18386,26.82
358,2026-03-06T18:44:13.469000,18:44:13.469,0.56465,2.15332,-9.6708,-0.9155,-1.2817,0.6714,167.0,-6.7,-159.7,0.56465,-2.15332,9.6708,-0.9155,1.2817,0.6714,-347.0,-6.7,-159.7,-295,337,18404,27.08
359,2026-03-06T18:44:13.569000,18:44:13.569,0.91396,1.97627,-9.50811,1.0376,-0.1221,0.9766,167.2,-6.8,-159.7,0.91396,-1.97627,9.50811,1.0376,0.1221,0.9766,-347.2,-6.8,-159.7,-336,334,18395,26.82
360,2026-03-06T18:44:13.669000,18:44:13.669,0.77998,1.98105,-9.56553,1.9531,0.4272,0.9155,167.3,-6.6,-159.8,0.77998,-1.98105,9.56553,1.9531,-0.4272,0.9155,-347.3,-6.6,-159.8,-310,389,18427,26.89
361,2026-03-06T18:44:13.769000,18:44:13.769,0.76084,2.04805,-9.88135,-1.2207,-0.3052,0.0,167.4,-6.4,-159.9,0.76084,-2.04805,9.88135,-1.2207,0.3052,0.0,-347.4,-6.4,-159.9,-316,414,18419,26.89
362,2026-03-06T18:44:13.869000,18:44:13.869,1.00488,1.78965,-9.50811,0.7935,-0.9155,0.0,167.6,-6.4,-159.9,1.00488,-1.78965,9.50811,0.7935,0.9155,0.0,-347.6,-6.4,-159.9,-353,416,18423,26.82
363,2026-03-06T18:44:13.969000,18:44:13.969,1.01445,1.89971,-9.42197,-0.1221,-1.5869,0.9766,167.6,-6.3,-160.0,1.01445,-1.89971,9.42197,-0.1221,1.5869,0.9766,-347.6,-6.3,-160.0,-342,435,18451,26.82
364,2026-03-06T18:44:14.068000,18:44:14.068,0.73691,1.76572,-9.63252,-0.6714,-2.1973,-0.1221,167.8,-6.0,-160.0,0.73691,-1.76572,9.63252,-0.6714,2.1973,-0.1221,-347.8,-6.0,-160.0,-326,470,18426,26.82
365,2026-03-06T18:44:14.169000,18:44:14.169,0.90439,1.63174,-9.57031,2.6245,0.7324,0.1221,168.0,-5.9,-160.0,0.90439,-1.63174,9.57031,2.6245,-0.7324,0.1221,-348.0,-5.9,-160.0,-311,503,18439,26.76
366,2026-03-06T18:44:14.269000,18:44:14.269,0.52637,1.67959,-8.95303,-0.3662,2.1973,1.4038,168.2,-5.7,-160.0,0.52637,-1.67959,8.95303,-0.3662,-2.1973,1.4038,-348.2,-5.7,-160.0,-275,588,18488,27.08
367,2026-03-06T18:44:14.369000,18:44:14.369,1.1915,1.38291,-8.93867,7.7515,6.1035,2.5024,168.5,-5.8,-160.0,1.1915,-1.38291,8.93867,7.7515,-6.1035,2.5024,-348.5,-5.8,-160.0,-284,586,18475,26.89
368,2026-03-06T18:44:14.468000,18:44:14.468,1.14844,0.45938,-10.13496,-8.7891,-5.9814,-5.127,169.1,-6.0,-160.0,1.14844,-0.45938,10.13496,-8.7891,5.9814,-5.127,-349.1,-6.0,-160.0,-395,695,18477,26.76
369,2026-03-06T18:44:14.568000,18:44:14.568,1.04316,1.15322,-10.03447,8.8501,4.5776,2.8076,169.4,-5.9,-159.8,1.04316,-1.15322,10.03447,8.8501,-4.5776,2.8076,-349.4,-5.9,-159.8,-329,626,18480,26.82
370,2026-03-06T18:44:14.667000,18:44:14.667,1.04316,1.34941,-8.79033,12.0239,9.7046,1.3428,169.7,-6.0,-159.7,1.04316,-1.34941,8.79033,12.0239,-9.7046,1.3428,-349.7,-6.0,-159.7,-353,652,18454,26.95
371,2026-03-06T18:44:14.768000,18:44:14.768,1.03359,0.91875,-9.06309,-0.9155,0.9155,-0.6714,170.3,-6.1,-159.5,1.03359,-0.91875,9.06309,-0.9155,-0.9155,-0.6714,-350.3,-6.1,-159.5,-385,746,18455,26.89
372,2026-03-06T18:44:14.868000,18:44:14.868,1.11494,1.01445,-10.07754,-5.9204,-0.3052,-2.9907,170.3,-6.3,-159.3,1.11494,-1.01445,10.07754,-5.9204,0.3052,-2.9907,-350.3,-6.3,-159.3,-386,752,18462,26.82
373,2026-03-06T18:44:14.968000,18:44:14.968,1.36855,0.79912,-10.19238,2.0752,-1.4038,-0.7324,170.4,-6.4,-159.1,1.36855,-0.79912,10.19238,2.0752,1.4038,-0.7324,-350.4,-6.4,-159.1,-412,628,18416,26.76
374,2026-03-06T18:44:15.067000,18:44:15.067,0.71299,1.08623,-9.73779,0.1221,1.5259,-1.0376,170.6,-6.3,-159.0,0.71299,-1.08623,9.73779,0.1221,-1.5259,-1.0376,-350.6,-6.3,-159.0,-347,592,18437,26.89
375,2026-03-06T18:44:15.167000,18:44:15.167,0.59814,1.08623,-9.28799,3.1128,2.5024,1.5869,170.8,-6.2,-159.0,0.59814,-1.08623,9.28799,3.1128,-2.5024,1.5869,-350.8,-6.2,-159.0,-359,661,18442,26.82
376,2026-03-06T18:44:15.267000,18:44:15.267,1.03359,0.88525,-10.19717,-1.5259,0.9155,-0.7935,171.1,-6.3,-159.1,1.03359,-0.88525,10.19717,-1.5259,-0.9155,-0.7935,-351.1,-6.3,-159.1,-431,692,18423,26.89
377,2026-03-06T18:44:15.367000,18:44:15.367,1.07666,1.08623,-9.00088,1.0376,0.9155,0.8545,171.2,-6.4,-159.0,1.07666,-1.08623,9.00088,1.0376,-0.9155,0.8545,-351.2,-6.4,-159.0,-465,700,18439,26.89
378,2026-03-06T18:44:15.467000,18:44:15.467,1.18193,1.3207,-9.83828,-4.0894,3.3569,-0.9766,171.3,-6.4,-159.0,1.18193,-1.3207,9.83828,-4.0894,-3.3569,-0.9766,-351.3,-6.4,-159.0,-459,725,18473,26.89
379,2026-03-06T18:44:15.567000,18:44:15.567,1.63652,0.65078,-9.63252,-0.2441,0.2441,-0.9766,171.6,-6.7,-159.0,1.63652,-0.65078,9.63252,-0.2441,-0.2441,-0.9766,-351.6,-6.7,-159.0,-509,673,18451,26.82
380,2026-03-06T18:44:15.666000,18:44:15.666,1.55996,1.04316,-9.5416,2.3193,4.4556,-2.4414,171.8,-6.9,-158.8,1.55996,-1.04316,9.5416,2.3193,-4.4556,-2.4414,-351.8,-6.9,-158.8,-529,677,18439,26.89
381,2026-03-06T18:44:15.766000,18:44:15.766,1.18672,1.08623,-8.98174,-3.0518,0.1221,-5.5542,171.7,-7.1,-158.4,1.18672,-1.08623,8.98174,-3.0518,-0.1221,-5.5542,-351.7,-7.1,-158.4,-630,695,18439,26.89
382,2026-03-06T18:44:15.866000,18:44:15.866,1.10059,1.25371,-9.71387,-6.897,1.4038,-2.6245,172.0,-7.2,-158.2,1.10059,-1.25371,9.71387,-6.897,-1.4038,-2.6245,-352.0,-7.2,-158.2,-651,783,18539,26.82
383,2026-03-06T18:44:15.966000,18:44:15.966,1.31113,1.03838,-10.08232,-2.3804,-5.3711,-1.3428,171.9,-7.1,-158.1,1.31113,-1.03838,10.08232,-2.3804,5.3711,-1.3428,-351.9,-7.1,-158.1,-626,740,18556,27.01
384,2026-03-06T18:44:16.065000,18:44:16.065,0.97617,1.44512,-9.86699,1.5869,-0.6714,-1.4038,171.8,-6.7,-158.0,0.97617,-1.44512,9.86699,1.5869,0.6714,-1.4038,-351.8,-6.7,-158.0,-537,714,18586,26.89
385,2026-03-06T18:44:16.165000,18:44:16.165,1.02881,1.35898,-9.47939,2.3193,1.0986,1.4038,171.8,-6.7,-157.9,1.02881,-1.35898,9.47939,2.3193,-1.0986,1.4038,-351.8,-6.7,-157.9,-480,681,18542,26.95
386,2026-03-06T18:44:16.264000,18:44:16.264,0.86611,1.26807,-9.51768,9.0942,3.2349,0.0,172.3,-6.6,-158.0,0.86611,-1.26807,9.51768,9.0942,-3.2349,0.0,-352.3,-6.6,-158.0,-440,755,18524,26.95
387,2026-03-06T18:44:16.364000,18:44:16.364,1.14365,1.51211,-9.72822,-3.8452,-0.061,-0.2441,172.2,-6.7,-158.0,1.14365,-1.51211,9.72822,-3.8452,0.061,-0.2441,-352.2,-6.7,-158.0,-493,858,18471,26.89
388,2026-03-06T18:44:16.464000,18:44:16.464,1.13887,1.01445,-9.85742,-2.0752,-2.1362,1.6479,172.4,-6.6,-158.1,1.13887,-1.01445,9.85742,-2.0752,2.1362,1.6479,-352.4,-6.6,-158.1,-502,850,18472,26.76
389,2026-03-06T18:44:16.564000,18:44:16.564,1.17236,1.24414,-9.60381,1.6479,0.2441,0.6104,172.1,-6.5,-158.1,1.17236,-1.24414,9.60381,1.6479,-0.2441,0.6104,-352.1,-6.5,-158.1,-485,783,18468,26.89
390,2026-03-06T18:44:16.664000,18:44:16.664,1.06709,1.31592,-9.19707,3.479,-1.5259,1.4038,172.0,-6.3,-158.2,1.06709,-1.31592,9.19707,3.479,1.5259,1.4038,-352.0,-6.3,-158.2,-475,739,18465,26.89
391,2026-03-06T18:44:16.764000,18:44:16.764,0.89961,1.30635,-9.59424,-2.6245,-3.7231,0.1831,172.0,-5.8,-158.2,0.89961,-1.30635,9.59424,-2.6245,3.7231,0.1831,-352.0,-5.8,-158.2,-393,723,18470,26.95
392,2026-03-06T18:44:16.863000,18:44:16.863,0.73691,1.1915,-9.68037,-0.7324,-1.2817,0.0,172.0,-5.7,-158.3,0.73691,-1.1915,9.68037,-0.7324,1.2817,0.0,-352.0,-5.7,-158.3,-329,702,18470,26.89
393,2026-03-06T18:44:16.963000,18:44:16.963,1.08623,1.03838,-9.99141,6.2866,-0.4272,1.0986,172.4,-5.7,-158.4,1.08623,-1.03838,9.99141,6.2866,0.4272,1.0986,-352.4,-5.7,-158.4,-355,727,18430,27.01
394,2026-03-06T18:44:17.063000,18:44:17.063,0.89004,1.14844,-9.47461,1.5869,0.8545,1.2817,172.4,-5.6,-158.5,0.89004,-1.14844,9.47461,1.5869,-0.8545,1.2817,-352.4,-5.6,-158.5,-327,768,18446,27.14
395,2026-03-06T18:44:17.163000,18:44:17.163,0.99531,0.97139,-9.77129,-4.8218,-3.2959,-0.1221,172.3,-5.3,-158.5,0.99531,-0.97139,9.77129,-4.8218,3.2959,-0.1221,-352.3,-5.3,-158.5,-332,780,18501,27.01
396,2026-03-06T18:44:17.263000,18:44:17.263,0.77041,0.87568,-9.74258,0.7324,-2.9297,0.6714,172.5,-5.2,-158.6,0.77041,-0.87568,9.74258,0.7324,2.9297,0.6714,-352.5,-5.2,-158.6,-281,733,18484,26.89
397,2026-03-06T18:44:17.363000,18:44:17.363,0.89961,1.03359,-10.06797,1.5259,0.3662,0.6714,172.7,-5.2,-158.7,0.89961,-1.03359,10.06797,1.5259,-0.3662,0.6714,-352.7,-5.2,-158.7,-251,773,18461,26.89
398,2026-03-06T18:44:17.462000,18:44:17.462,0.7082,0.98574,-9.72344,-2.2583,-1.1597,0.0,172.8,-5.1,-158.7,0.7082,-0.98574,9.72344,-2.2583,1.1597,0.0,-352.8,-5.1,-158.7,-272,813,18454,26.95
399,2026-03-06T18:44:17.562000,18:44:17.562,1.25371,1.10537,-9.94834,-4.2114,0.1221,0.7324,172.7,-5.1,-158.8,1.25371,-1.10537,9.94834,-4.2114,-0.1221,0.7324,-352.7,-5.1,-158.8,-280,746,18351,27.08
400,2026-03-06T18:44:17.662000,18:44:17.662,0.91396,1.13887,-9.67559,-1.0986,-2.8076,0.7935,172.7,-5.0,-159.0,0.91396,-1.13887,9.67559,-1.0986,2.8076,0.7935,-352.7,-5.0,-159.0,-263,727,18327,27.01
401,2026-03-06T18:44:17.762000,18:44:17.762,0.75605,1.53125,-9.43154,-0.7324,2.3193,0.9155,172.5,-4.9,-159.0,0.75605,-1.53125,9.43154,-0.7324,-2.3193,0.9155,-352.5,-4.9,-159.0,-215,686,18282,26.89
402,2026-03-06T18:44:17.862000,18:44:17.862,0.8374,1.55039,-9.47461,-2.3193,-0.6104,0.8545,172.5,-4.9,-159.1,0.8374,-1.55039,9.47461,-2.3193,0.6104,0.8545,-352.5,-4.9,-159.1,-244,731,18320,27.14
403,2026-03-06T18:44:17.962000,18:44:17.962,1.11973,1.61738,-9.88613,2.6855,1.8921,0.5493,172.4,-5.0,-159.1,1.11973,-1.61738,9.88613,2.6855,-1.8921,0.5493,-352.4,-5.0,-159.1,-239,706,18316,26.89
404,2026-03-06T18:44:18.061000,18:44:18.061,0.78955,1.7418,-9.48896,-4.9438,0.1831,1.0376,172.0,-4.8,-159.2,0.78955,-1.7418,9.48896,-4.9438,-0.1831,1.0376,-352.0,-4.8,-159.2,-240,728,18332,27.08
405,2026-03-06T18:44:18.162000,18:44:18.162,1.02881,1.85664,-9.72822,-6.0425,-1.3428,-0.2441,171.6,-4.7,-159.3,1.02881,-1.85664,9.72822,-6.0425,1.3428,-0.2441,-351.6,-4.7,-159.3,-235,661,18393,27.01
406,2026-03-06T18:44:18.262000,18:44:18.262,1.28721,1.77051,-9.77129,-0.3662,-0.9155,0.2441,171.4,-4.9,-159.3,1.28721,-1.77051,9.77129,-0.3662,0.9155,0.2441,-351.4,-4.9,-159.3,-249,605,18398,26.89
407,2026-03-06T18:44:18.362000,18:44:18.362,1.06709,2.11025,-9.36934,-3.418,2.5635,0.2441,170.8,-4.8,-159.3,1.06709,-2.11025,9.36934,-3.418,-2.5635,0.2441,-350.8,-4.8,-159.3,-254,602,18372,26.89
408,2026-03-06T18:44:18.461000,18:44:18.461,0.63164,2.04805,-9.52246,-3.8452,-2.5635,-0.7935,170.2,-4.6,-159.2,0.63164,-2.04805,9.52246,-3.8452,2.5635,-0.7935,-350.2,-4.6,-159.2,-211,502,18402,27.01
409,2026-03-06T18:44:18.561000,18:44:18.561,1.02881,1.94756,-9.69951,1.5259,2.6855,0.2441,169.9,-4.7,-159.1,1.02881,-1.94756,9.69951,1.5259,-2.6855,0.2441,-349.9,-4.7,-159.1,-138,400,18385,26.82
410,2026-03-06T18:44:18.661000,18:44:18.661,1.30635,1.80879,-10.00098,-0.4883,0.2441,-0.4883,169.9,-4.8,-159.1,1.30635,-1.80879,10.00098,-0.4883,-0.2441,-0.4883,-349.9,-4.8,-159.1,-196,402,18343,26.95
411,2026-03-06T18:44:18.761000,18:44:18.761,0.97617,1.89971,-9.19229,5.127,0.7935,-0.7935,169.8,-4.9,-159.0,0.97617,-1.89971,9.19229,5.127,-0.7935,-0.7935,-349.8,-4.9,-159.0,-207,388,18353,26.95
412,2026-03-06T18:44:18.861000,18:44:18.861,0.69385,1.76572,-9.81914,-0.6714,-3.6011,-2.1973,170.0,-4.8,-158.8,0.69385,-1.76572,9.81914,-0.6714,3.6011,-2.1973,-350.0,-4.8,-158.8,-229,485,18380,26.95
413,2026-03-06T18:44:18.960000,18:44:18.960,1.06709,1.43555,-9.49375,3.8452,0.9155,-0.6104,170.6,-5.2,-158.7,1.06709,-1.43555,9.49375,3.8452,-0.9155,-0.6104,-350.6,-5.2,-158.7,-283,585,18353,27.01
414,2026-03-06T18:44:19.060000,18:44:19.060,0.86611,1.81836,-9.44111,1.2817,5.0659,-1.0376,170.0,-5.0,-158.5,0.86611,-1.81836,9.44111,1.2817,-5.0659,-1.0376,-350.0,-5.0,-158.5,-231,624,18433,26.95
415,2026-03-06T18:44:19.159000,18:44:19.159,1.11973,1.83271,-9.66123,-7.1411,-0.1221,2.3193,169.6,-5.1,-158.6,1.11973,-1.83271,9.66123,-7.1411,0.1221,2.3193,-349.6,-5.1,-158.6,-285,527,18370,26.82
416,2026-03-06T18:44:19.259000,18:44:19.259,1.13408,1.98584,-9.43633,-2.3804,-3.0518,3.3569,169.0,-5.0,-158.8,1.13408,-1.98584,9.43633,-2.3804,3.0518,3.3569,-349.0,-5.0,-158.8,-296,323,18330,26.95
417,2026-03-06T18:44:19.359000,18:44:19.359,0.646,1.94277,-10.39814,-10.1318,-24.6582,-2.1362,168.5,-3.8,-159.1,0.646,-1.94277,10.39814,-10.1318,24.6582,-2.1362,-348.5,-3.8,-159.1,-134,191,18323,27.01
418,2026-03-06T18:44:19.459000,18:44:19.459,-0.18662,2.05283,-9.71387,-5.6152,-15.1978,-3.3569,167.9,-1.7,-159.2,-0.18662,-2.05283,9.71387,-5.6152,15.1978,-3.3569,-347.9,-1.7,-159.2,429,5,18280,27.2
419,2026-03-06T18:44:19.559000,18:44:19.559,0.22969,2.14375,-9.57031,-3.9062,1.8311,1.2207,167.5,-1.3,-159.1,0.22969,-2.14375,9.57031,-3.9062,-1.8311,1.2207,-347.5,-1.3,-159.1,848,-64,18297,26.89
420,2026-03-06T18:44:19.659000,18:44:19.659,0.60293,2.23945,-9.57031,0.6104,1.2207,-2.1362,167.5,-1.8,-159.0,0.60293,-2.23945,9.57031,0.6104,-1.2207,-2.1362,-347.5,-1.8,-159.0,838,-130,18275,27.14
421,2026-03-06T18:44:19.758000,18:44:19.758,0.26318,2.08154,-9.48418,5.9204,-7.8735,-2.3193,167.7,-1.6,-158.8,0.26318,-2.08154,9.48418,5.9204,7.8735,-2.3193,-347.7,-1.6,-158.8,764,-107,18245,27.2
422,2026-03-06T18:44:19.858000,18:44:19.858,0.06699,1.99541,-9.93398,10.2539,18.9819,2.5024,168.5,-1.9,-158.6,0.06699,-1.99541,9.93398,10.2539,-18.9819,2.5024,-348.5,-1.9,-158.6,816,103,18294,26.89
423,2026-03-06T18:44:19.958000,18:44:19.958,0.63164,1.99541,-9.7043,-3.3569,7.6904,2.6855,168.6,-2.9,-158.8,0.63164,-1.99541,9.7043,-3.3569,-7.6904,2.6855,-348.6,-2.9,-158.8,468,263,18317,27.08
424,2026-03-06T18:44:20.058000,18:44:20.058,0.579,1.68438,-9.47461,0.3052,5.6152,-0.5493,168.6,-3.5,-158.7,0.579,-1.68438,9.47461,0.3052,-5.6152,-0.5493,-348.6,-3.5,-158.7,234,232,18319,27.01
425,2026-03-06T18:44:20.158000,18:44:20.158,0.85654,1.77529,-9.72822,8.4839,3.2349,0.5493,169.0,-4.0,-158.7,0.85654,-1.77529,9.72822,8.4839,-3.2349,0.5493,-349.0,-4.0,-158.7,50,319,18336,27.08
426,2026-03-06T18:44:20.258000,18:44:20.258,0.68906,1.69395,-9.60859,1.9531,3.3569,-3.1128,169.4,-4.1,-158.5,0.68906,-1.69395,9.60859,1.9531,-3.3569,-3.1128,-349.4,-4.1,-158.5,-67,496,18379,27.27
427,2026-03-06T18:44:20.358000,18:44:20.358,0.646,1.44033,-9.68516,0.9155,-2.5635,-1.4648,169.6,-3.8,-158.4,0.646,-1.44033,9.68516,0.9155,2.5635,-1.4648,-349.6,-3.8,-158.4,-68,587,18395,26.95
428,2026-03-06T18:44:20.458000,18:44:20.458,0.89482,1.54561,-9.48418,-2.6855,-4.0283,-0.3052,169.5,-3.7,-158.4,0.89482,-1.54561,9.48418,-2.6855,4.0283,-0.3052,-349.5,-3.7,-158.4,-35,590,18363,27.14
429,2026-03-06T18:44:20.558000,18:44:20.558,0.68428,1.58867,-9.50811,-5.3711,1.3428,-1.5259,169.3,-3.6,-158.1,0.68428,-1.58867,9.50811,-5.3711,-1.3428,-1.5259,-349.3,-3.6,-158.1,37,528,18354,27.14
430,2026-03-06T18:44:20.658000,18:44:20.658,0.66035,1.72266,-9.66123,-4.2725,-3.0518,1.0376,168.9,-3.5,-158.2,0.66035,-1.72266,9.66123,-4.2725,3.0518,1.0376,-348.9,-3.5,-158.2,63,429,18349,27.08
431,2026-03-06T18:44:20.758000,18:44:20.758,0.59336,1.76094,-9.66123,1.6479,-2.3193,0.4883,168.7,-3.5,-158.3,0.59336,-1.76094,9.66123,1.6479,2.3193,0.4883,-348.7,-3.5,-158.3,77,316,18373,27.08
432,2026-03-06T18:44:20.857000,18:44:20.857,0.63643,1.6748,-9.62295,0.2441,-3.2959,1.3428,169.0,-3.3,-158.4,0.63643,-1.6748,9.62295,0.2441,3.2959,1.3428,-349.0,-3.3,-158.4,132,343,18411,27.2
433,2026-03-06T18:44:20.957000,18:44:20.957,0.73213,1.62695,-9.42197,-1.5869,-0.9766,1.6479,169.0,-3.1,-158.6,0.73213,-1.62695,9.42197,-1.5869,0.9766,1.6479,-349.0,-3.1,-158.6,189,353,18368,27.27
434,2026-03-06T18:44:21.057000,18:44:21.057,0.68906,1.65566,-9.64209,0.7324,0.061,0.1831,169.1,-3.4,-158.6,0.68906,-1.65566,9.64209,0.7324,-0.061,0.1831,-349.1,-3.4,-158.6,166,344,18357,26.95
435,2026-03-06T18:44:21.157000,18:44:21.157,0.50244,1.5791,-9.79521,0.8545,0.3052,0.6714,169.3,-3.2,-158.7,0.50244,-1.5791,9.79521,0.8545,-0.3052,0.6714,-349.3,-3.2,-158.7,194,372,18381,27.01
436,2026-03-06T18:44:21.257000,18:44:21.257,0.75127,1.78965,-9.9292,-3.418,1.6479,0.3052,169.2,-3.3,-158.8,0.75127,-1.78965,9.9292,-3.418,-1.6479,0.3052,-349.2,-3.3,-158.8,185,365,18360,27.14
437,2026-03-06T18:44:21.357000,18:44:21.357,0.78477,1.56475,-9.65645,-1.2817,-1.4038,1.0376,169.2,-3.3,-158.8,0.78477,-1.56475,9.65645,-1.2817,1.4038,1.0376,-349.2,-3.3,-158.8,166,359,18397,26.89
438,2026-03-06T18:44:21.456000,18:44:21.456,0.43545,1.65088,-9.53682,-2.1362,-3.9062,1.2207,169.3,-3.1,-158.9,0.43545,-1.65088,9.53682,-2.1362,3.9062,1.2207,-349.3,-3.1,-158.9,190,364,18401,27.01
439,2026-03-06T18:44:21.555000,18:44:21.555,0.646,1.67959,-9.53682,0.4883,0.1831,0.2441,169.2,-3.2,-159.0,0.646,-1.67959,9.53682,0.4883,-0.1831,0.2441,-349.2,-3.2,-159.0,219,318,18360,26.95
440,2026-03-06T18:44:21.655000,18:44:21.655,0.67471,1.65566,-10.0584,13.0005,1.6479,1.4648,169.8,-3.2,-159.1,0.67471,-1.65566,10.0584,13.0005,-1.6479,1.4648,-349.8,-3.2,-159.1,217,372,18384,27.33
441,2026-03-06T18:44:21.755000,18:44:21.755,0.44502,1.2585,-9.95312,1.2817,-0.1221,1.3428,170.7,-3.0,-159.2,0.44502,-1.2585,9.95312,1.2817,0.1221,1.3428,-350.7,-3.0,-159.2,210,668,18392,27.08
442,2026-03-06T18:44:21.855000,18:44:21.855,0.80391,1.28721,-9.35977,-7.4463,3.1128,-0.2441,170.6,-3.4,-159.2,0.80391,-1.28721,9.35977,-7.4463,-3.1128,-0.2441,-350.6,-3.4,-159.2,176,747,18395,27.08
443,2026-03-06T18:44:21.955000,18:44:21.955,0.58379,1.46426,-9.59424,-4.2725,-5.7983,0.8545,170.3,-3.2,-159.2,0.58379,-1.46426,9.59424,-4.2725,5.7983,0.8545,-350.3,-3.2,-159.2,105,664,18408,27.14
444,2026-03-06T18:44:22.054000,18:44:22.054,0.63164,1.48818,-9.62773,-4.8218,2.1973,2.3804,169.9,-3.2,-159.5,0.63164,-1.48818,9.62773,-4.8218,-2.1973,2.3804,-349.9,-3.2,-159.5,143,515,18391,27.27
445,2026-03-06T18:44:22.154000,18:44:22.154,0.81348,1.48818,-9.69951,0.4272,1.0986,0.5493,169.7,-3.4,-159.6,0.81348,-1.48818,9.69951,0.4272,-1.0986,0.5493,-349.7,-3.4,-159.6,99,347,18379,26.95
446,2026-03-06T18:44:22.254000,18:44:22.254,0.47373,1.48818,-9.57031,0.7935,-6.1035,0.4272,169.7,-2.9,-159.7,0.47373,-1.48818,9.57031,0.7935,6.1035,0.4272,-349.7,-2.9,-159.7,100,299,18362,27.01
447,2026-03-06T18:44:22.354000,18:44:22.354,0.43545,1.66523,-9.46982,-1.2817,-3.1128,0.6714,169.8,-2.8,-159.8,0.43545,-1.66523,9.46982,-1.2817,3.1128,0.6714,-349.8,-2.8,-159.8,183,342,18421,27.27
448,2026-03-06T18:44:22.454000,18:44:22.454,0.7082,1.64609,-9.62773,-2.6245,-1.8311,0.9766,169.7,-2.6,-159.9,0.7082,-1.64609,9.62773,-2.6245,1.8311,0.9766,-349.7,-2.6,-159.9,199,335,18419,27.08
449,2026-03-06T18:44:22.554000,18:44:22.554,0.43066,1.74658,-9.68037,-2.0752,-4.3945,-1.0986,169.5,-2.6,-159.9,0.43066,-1.74658,9.68037,-2.0752,4.3945,-1.0986,-349.5,-2.6,-159.9,169,288,18374,27.01
450,2026-03-06T18:44:22.653000,18:44:22.653,0.42109,1.68916,-9.68516,0.6714,-2.4414,1.3428,169.6,-2.3,-160.1,0.42109,-1.68916,9.68516,0.6714,2.4414,1.3428,-349.6,-2.3,-160.1,245,286,18392,27.14
451,2026-03-06T18:44:22.753000,18:44:22.753,0.58857,1.83271,-9.60381,-0.9766,2.8076,1.0376,169.6,-2.4,-160.2,0.58857,-1.83271,9.60381,-0.9766,-2.8076,1.0376,-349.6,-2.4,-160.2,248,277,18343,26.95
452,2026-03-06T18:44:22.853000,18:44:22.853,0.3541,1.93799,-9.44111,-1.2207,-2.6245,0.8545,169.5,-2.2,-160.3,0.3541,-1.93799,9.44111,-1.2207,2.6245,0.8545,-349.5,-2.2,-160.3,220,263,18383,27.01
453,2026-03-06T18:44:22.953000,18:44:22.953,0.48809,1.99541,-9.58945,-3.1738,-1.5869,-0.3662,169.2,-2.1,-160.4,0.48809,-1.99541,9.58945,-3.1738,1.5869,-0.3662,-349.2,-2.1,-160.4,259,231,18363,27.27
454,2026-03-06T18:44:23.053000,18:44:23.053,0.37803,1.78965,-9.38369,2.9297,-5.127,0.6104,169.2,-2.0,-160.5,0.37803,-1.78965,9.38369,2.9297,5.127,0.6104,-349.2,-2.0,-160.5,255,188,18354,27.08
455,2026-03-06T18:44:23.153000,18:44:23.153,0.41631,1.95234,-9.84307,-0.7324,-1.8921,-0.7324,169.2,-1.7,-160.5,0.41631,-1.95234,9.84307,-0.7324,1.8921,-0.7324,-349.2,-1.7,-160.5,345,242,18310,26.95
456,2026-03-06T18:44:23.253000,18:44:23.253,0.59336,1.88535,-9.75693,-0.2441,0.9766,1.2207,169.1,-1.8,-160.6,0.59336,-1.88535,9.75693,-0.2441,-0.9766,1.2207,-349.1,-1.8,-160.6,359,240,18309,27.2
457,2026-03-06T18:44:23.353000,18:44:23.353,0.23447,1.86143,-9.45547,-1.0986,-1.2207,0.7324,169.2,-1.6,-160.7,0.23447,-1.86143,9.45547,-1.0986,1.2207,0.7324,-349.2,-1.6,-160.7,401,212,18301,27.14
458,2026-03-06T18:44:23.453000,18:44:23.453,0.29668,1.90449,-9.38369,-2.0142,-1.8311,0.9766,169.1,-1.4,-160.8,0.29668,-1.90449,9.38369,-2.0142,1.8311,0.9766,-349.1,-1.4,-160.8,445,218,18326,27.01
459,2026-03-06T18:44:23.553000,18:44:23.553,0.42588,1.99541,-9.52725,-0.3052,-0.9766,0.6714,168.9,-1.5,-160.9,0.42588,-1.99541,9.52725,-0.3052,0.9766,0.6714,-348.9,-1.5,-160.9,429,195,18319,27.14
460,2026-03-06T18:44:23.653000,18:44:23.653,0.31582,1.85186,-9.58945,-0.6104,-2.2583,0.4883,168.9,-1.4,-160.9,0.31582,-1.85186,9.58945,-0.6104,2.2583,0.4883,-348.9,-1.4,-160.9,452,205,18350,27.2
461,2026-03-06T18:44:23.752000,18:44:23.752,0.43545,1.98105,-9.74258,-0.6104,1.77,0.3052,168.7,-1.5,-161.0,0.43545,-1.98105,9.74258,-0.6104,-1.77,0.3052,-348.7,-1.5,-161.0,443,163,18345,27.08
462,2026-03-06T18:44:23.852000,18:44:23.852,0.33496,1.89492,-9.70908,-0.061,-3.9673,-0.061,168.7,-1.4,-161.0,0.33496,-1.89492,9.70908,-0.061,3.9673,-0.061,-348.7,-1.4,-161.0,425,142,18347,27.08
463,2026-03-06T18:44:23.951000,18:44:23.951,0.27275,1.92842,-9.55596,-3.418,-2.6245,0.9766,168.6,-1.2,-161.2,0.27275,-1.92842,9.55596,-3.418,2.6245,0.9766,-348.6,-1.2,-161.2,471,152,18311,27.2
464,2026-03-06T18:44:24.052000,18:44:24.052,0.34932,1.91885,-9.52246,-1.5869,-1.8311,0.5493,168.5,-1.1,-161.3,0.34932,-1.91885,9.52246,-1.5869,1.8311,0.5493,-348.5,-1.1,-161.3,519,113,18307,27.08
465,2026-03-06T18:44:24.152000,18:44:24.152,0.39717,1.98105,-9.54639,-0.4272,0.4883,0.061,168.4,-1.2,-161.3,0.39717,-1.98105,9.54639,-0.4272,-0.4883,0.061,-348.4,-1.2,-161.3,519,89,18294,26.95
466,2026-03-06T18:44:24.252000,18:44:24.252,0.7082,1.96191,-9.64688,1.2817,1.0986,0.3052,168.3,-1.3,-161.3,0.7082,-1.96191,9.64688,1.2817,-1.0986,0.3052,-348.3,-1.3,-161.3,445,78,18289,27.2
467,2026-03-06T18:44:24.351000,18:44:24.351,0.0957,1.77051,-9.74736,-2.0142,-6.2256,-1.9531,168.5,-1.0,-161.4,0.0957,-1.77051,9.74736,-2.0142,6.2256,-1.9531,-348.5,-1.0,-161.4,459,123,18366,27.27
468,2026-03-06T18:44:24.451000,18:44:24.451,-0.17227,1.88057,-9.69951,0.0,-0.2441,0.3052,168.4,-0.6,-161.3,-0.17227,-1.88057,9.69951,0.0,0.2441,0.3052,-348.4,-0.6,-161.3,582,107,18330,27.27
469,2026-03-06T18:44:24.551000,18:44:24.551,0.2249,2.04326,-10.00576,-4.1504,0.9155,1.4038,168.2,-0.7,-161.5,0.2249,-2.04326,10.00576,-4.1504,-0.9155,1.4038,-348.2,-0.7,-161.5,604,104,18292,27.01
470,2026-03-06T18:44:24.651000,18:44:24.651,0.84697,1.94756,-9.3502,-3.3569,4.0283,1.0376,167.8,-1.3,-161.4,0.84697,-1.94756,9.3502,-3.3569,-4.0283,1.0376,-347.8,-1.3,-161.4,548,43,18300,27.33
471,2026-03-06T18:44:24.751000,18:44:24.751,-0.06699,2.20117,-9.73301,-0.1221,-6.1035,-1.3428,167.7,-1.3,-161.5,-0.06699,-2.20117,9.73301,-0.1221,6.1035,-1.3428,-347.7,-1.3,-161.5,470,-3,18281,27.2
472,2026-03-06T18:44:24.851000,18:44:24.851,-0.07656,2.00498,-9.56553,3.479,2.8076,0.061,167.8,-0.8,-161.5,-0.07656,-2.00498,9.56553,3.479,-2.8076,0.061,-347.8,-0.8,-161.5,623,-5,18292,27.27
473,2026-03-06T18:44:24.950000,18:44:24.950,0.93311,1.86143,-9.39805,4.0283,5.0659,2.9907,168.1,-1.1,-161.6,0.93311,-1.86143,9.39805,4.0283,-5.0659,2.9907,-348.1,-1.1,-161.6,608,27,18271,27.2
474,2026-03-06T18:44:25.050000,18:44:25.050,0.37324,1.78486,-9.5751,2.3193,0.3052,1.3428,168.6,-1.8,-161.7,0.37324,-1.78486,9.5751,2.3193,-0.3052,1.3428,-348.6,-1.8,-161.7,477,117,18276,27.08
475,2026-03-06T18:44:25.150000,18:44:25.150,0.13877,1.90928,-9.39805,0.6104,-0.1221,-1.2207,168.6,-1.2,-161.8,0.13877,-1.90928,9.39805,0.6104,0.1221,-1.2207,-348.6,-1.2,-161.8,535,192,18295,27.27
476,2026-03-06T18:44:25.250000,18:44:25.250,0.80869,1.90928,-9.56553,-2.0142,3.7231,3.1128,168.5,-1.9,-161.9,0.80869,-1.90928,9.56553,-2.0142,-3.7231,3.1128,-348.5,-1.9,-161.9,477,193,18288,27.27
477,2026-03-06T18:44:25.350000,18:44:25.350,0.23926,1.83271,-9.56074,0.4272,-3.0518,-0.1221,168.4,-1.9,-161.9,0.23926,-1.83271,9.56074,0.4272,3.0518,-0.1221,-348.4,-1.9,-161.9,408,169,18298,26.95
478,2026-03-06T18:44:25.450000,18:44:25.450,0.49766,1.93799,-9.91006,-0.3662,-0.2441,0.6714,168.4,-1.8,-162.1,0.49766,-1.93799,9.91006,-0.3662,0.2441,0.6714,-348.4,-1.8,-162.1,444,168,18295,27.27
479,2026-03-06T18:44:25.549000,18:44:25.549,0.50723,1.82793,-9.48418,-0.6104,1.77,0.5493,168.4,-1.8,-162.1,0.50723,-1.82793,9.48418,-0.6104,-1.77,0.5493,-348.4,-1.8,-162.1,464,180,18307,27.2
480,2026-03-06T18:44:25.649000,18:44:25.649,0.30625,1.87578,-9.75215,-0.8545,-2.5024,0.6104,168.5,-1.9,-162.2,0.30625,-1.87578,9.75215,-0.8545,2.5024,0.6104,-348.5,-1.9,-162.2,432,180,18300,26.95
481,2026-03-06T18:44:25.748000,18:44:25.748,0.59336,1.77529,-9.6373,-0.4272,2.6245,0.9155,168.5,-2.1,-162.2,0.59336,-1.77529,9.6373,-0.4272,-2.6245,0.9155,-348.5,-2.1,-162.2,426,176,18314,27.2
482,2026-03-06T18:44:25.848000,18:44:25.848,0.52158,1.89014,-9.46025,-1.0986,-0.4883,0.7935,168.4,-2.2,-162.2,0.52158,-1.89014,9.46025,-1.0986,0.4883,0.7935,-348.4,-2.2,-162.2,401,161,18307,27.14
483,2026-03-06T18:44:25.948000,18:44:25.948,0.23447,2.08154,-9.47939,-1.0376,-3.7231,-0.5493,168.3,-2.1,-162.4,0.23447,-2.08154,9.47939,-1.0376,3.7231,-0.5493,-348.3,-2.1,-162.4,364,133,18296,27.33
484,2026-03-06T18:44:26.048000,18:44:26.048,0.53594,1.89492,-9.82871,0.6104,2.0752,0.8545,168.2,-2.2,-162.4,0.53594,-1.89492,9.82871,0.6104,-2.0752,0.8545,-348.2,-2.2,-162.4,430,106,18323,27.14
485,2026-03-06T18:44:26.148000,18:44:26.148,0.57422,1.84707,-9.54639,-0.9155,1.8921,1.0986,168.3,-2.3,-162.5,0.57422,-1.84707,9.54639,-0.9155,-1.8921,1.0986,-348.3,-2.3,-162.5,389,95,18289,27.08
486,2026-03-06T18:44:26.247000,18:44:26.247,0.43066,1.85664,-9.69473,0.7935,-8.8501,-0.6104,168.4,-2.1,-162.6,0.43066,-1.85664,9.69473,0.7935,8.8501,-0.6104,-348.4,-2.1,-162.6,366,100,18292,27.01
487,2026-03-06T18:44:26.347000,18:44:26.347,0.4833,1.84229,-9.50332,-2.7466,-4.1504,-0.061,168.4,-1.4,-162.7,0.4833,-1.84229,9.50332,-2.7466,4.1504,-0.061,-348.4,-1.4,-162.7,545,124,18289,27.14
488,2026-03-06T18:44:26.447000,18:44:26.447,0.48809,2.02412,-9.51289,0.2441,1.6479,-0.9155,168.4,-1.7,-162.7,0.48809,-2.02412,9.51289,0.2441,-1.6479,-0.9155,-348.4,-1.7,-162.7,571,87,18292,27.27
489,2026-03-06T18:44:26.547000,18:44:26.547,0.31104,1.78486,-9.54639,1.77,-1.1597,1.6479,168.7,-1.7,-162.7,0.31104,-1.78486,9.54639,1.77,1.1597,1.6479,-348.7,-1.7,-162.7,543,160,18304,27.27
490,2026-03-06T18:44:26.647000,18:44:26.647,0.30625,1.82793,-9.59424,0.2441,0.6714,-0.061,168.6,-1.5,-162.8,0.30625,-1.82793,9.59424,0.2441,-0.6714,-0.061,-348.6,-1.5,-162.8,545,176,18327,27.08
491,2026-03-06T18:44:26.746000,18:44:26.746,0.44502,1.79443,-9.49854,-0.9766,-1.8921,1.0986,168.6,-1.7,-162.8,0.44502,-1.79443,9.49854,-0.9766,1.8921,1.0986,-348.6,-1.7,-162.8,503,180,18344,27.01
492,2026-03-06T18:44:26.846000,18:44:26.846,0.43066,1.91885,-9.79043,-0.6714,-1.4038,0.3662,168.5,-1.6,-162.9,0.43066,-1.91885,9.79043,-0.6714,1.4038,0.3662,-348.5,-1.6,-162.9,499,148,18287,27.14
493,2026-03-06T18:44:26.946000,18:44:26.946,0.22969,1.85186,-9.41719,0.6104,-1.0986,-0.4883,168.5,-1.5,-162.9,0.22969,-1.85186,9.41719,0.6104,1.0986,-0.4883,-348.5,-1.5,-162.9,512,128,18293,27.27
494,2026-03-06T18:44:27.046000,18:44:27.046,0.46895,1.98105,-9.57031,-1.0376,1.3428,0.7935,168.5,-1.4,-163.0,0.46895,-1.98105,9.57031,-1.0376,-1.3428,0.7935,-348.5,-1.4,-163.0,519,163,18273,27.27
495,2026-03-06T18:44:27.146000,18:44:27.146,0.42109,1.81357,-9.66123,0.8545,-2.0142,0.4883,168.6,-1.6,-162.9,0.42109,-1.81357,9.66123,0.8545,2.0142,0.4883,-348.6,-1.6,-162.9,464,134,18254,27.33
496,2026-03-06T18:44:27.246000,18:44:27.246,0.30146,1.86621,-9.31191,-2.1973,1.5259,-0.4883,168.5,-1.5,-163.0,0.30146,-1.86621,9.31191,-2.1973,-1.5259,-0.4883,-348.5,-1.5,-163.0,469,125,18269,27.27
497,2026-03-06T18:44:27.345000,18:44:27.345,0.3876,1.90928,-9.51289,0.9155,-3.9673,-0.3052,168.4,-1.4,-163.0,0.3876,-1.90928,9.51289,0.9155,3.9673,-0.3052,-348.4,-1.4,-163.0,444,97,18260,27.2
498,2026-03-06T18:44:27.445000,18:44:27.445,0.33018,1.84229,-9.86699,-3.2959,2.1362,-0.7324,168.4,-1.5,-163.0,0.33018,-1.84229,9.86699,-3.2959,-2.1362,-0.7324,-348.4,-1.5,-163.0,473,115,18276,27.27
499,2026-03-06T18:44:27.545000,18:44:27.545,0.36846,1.97627,-9.58467,0.1221,0.3052,0.0,168.1,-1.5,-162.9,0.36846,-1.97627,9.58467,0.1221,-0.3052,0.0,-348.1,-1.5,-162.9,433,37,18263,27.39
500,2026-03-06T18:44:27.645000,18:44:27.645,0.05264,1.94756,-9.78086,-1.709,-4.8218,0.7324,168.1,-1.2,-163.1,0.05264,-1.94756,9.78086,-1.709,4.8218,0.7324,-348.1,-1.2,-163.1,499,56,18335,27.33
501,2026-03-06T18:44:27.745000,18:44:27.745,0.40195,1.85664,-9.74736,6.1646,5.4321,1.709,168.3,-1.3,-163.2,0.40195,-1.85664,9.74736,6.1646,-5.4321,1.709,-348.3,-1.3,-163.2,552,92,18358,27.27
502,2026-03-06T18:44:27.845000,18:44:27.845,0.11006,1.88057,-9.45068,-0.1221,3.2349,-1.2817,168.5,-1.6,-163.2,0.11006,-1.88057,9.45068,-0.1221,-3.2349,-1.2817,-348.5,-1.6,-163.2,483,186,18389,27.2
503,2026-03-06T18:44:27.944000,18:44:27.944,0.40195,1.88535,-9.52246,-0.1831,0.8545,1.6479,168.4,-1.6,-163.1,0.40195,-1.88535,9.52246,-0.1831,-0.8545,1.6479,-348.4,-1.6,-163.1,432,248,18433,27.33
504,2026-03-06T18:44:28.044000,18:44:28.044,0.56465,1.90928,-9.58945,-0.061,-0.061,0.4883,168.4,-1.9,-163.1,0.56465,-1.90928,9.58945,-0.061,0.061,0.4883,-348.4,-1.9,-163.1,348,199,18406,27.33
505,2026-03-06T18:44:28.144000,18:44:28.144,0.14355,1.83271,-9.35498,0.7324,-3.479,-0.3052,168.4,-1.5,-163.2,0.14355,-1.83271,9.35498,0.7324,3.479,-0.3052,-348.4,-1.5,-163.2,394,161,18352,27.39
506,2026-03-06T18:44:28.244000,18:44:28.244,0.53115,1.91885,-9.49375,1.2817,2.4414,0.6714,168.5,-1.6,-163.3,0.53115,-1.91885,9.49375,1.2817,-2.4414,0.6714,-348.5,-1.6,-163.3,384,141,18303,27.33
507,2026-03-06T18:44:28.345000,18:44:28.345,0.34932,1.83271,-9.68994,0.5493,-3.2959,0.6104,168.6,-1.7,-163.4,0.34932,-1.83271,9.68994,0.5493,3.2959,0.6104,-348.6,-1.7,-163.4,365,193,18327,27.27
508,2026-03-06T18:44:28.444000,18:44:28.444,0.51201,1.82314,-9.57988,-1.2207,0.6104,0.8545,168.6,-1.6,-163.5,0.51201,-1.82314,9.57988,-1.2207,-0.6104,0.8545,-348.6,-1.6,-163.5,413,221,18348,27.2
509,2026-03-06T18:44:28.544000,18:44:28.544,0.39717,1.88057,-9.53203,0.9155,-0.8545,0.0,168.7,-1.6,-163.5,0.39717,-1.88057,9.53203,0.9155,0.8545,0.0,-348.7,-1.6,-163.5,414,218,18367,27.33
510,2026-03-06T18:44:28.643000,18:44:28.643,0.27754,1.83271,-9.46982,1.0376,1.4038,1.6479,168.8,-1.5,-163.6,0.27754,-1.83271,9.46982,1.0376,-1.4038,1.6479,-348.8,-1.5,-163.6,418,230,18349,27.27
511,2026-03-06T18:44:28.744000,18:44:28.744,0.40195,1.81836,-9.25928,0.4883,-0.9766,0.1831,168.9,-1.7,-163.7,0.40195,-1.81836,9.25928,0.4883,0.9766,0.1831,-348.9,-1.7,-163.7,427,247,18374,27.2
512,2026-03-06T18:44:28.844000,18:44:28.844,0.44023,1.871,-9.46504,0.6104,4.1504,0.3052,168.9,-1.7,-163.8,0.44023,-1.871,9.46504,0.6104,-4.1504,0.3052,-348.9,-1.7,-163.8,448,256,18345,27.39
513,2026-03-06T18:44:28.943000,18:44:28.943,0.33975,1.88535,-9.35498,2.5024,-0.1221,0.4272,169.0,-1.7,-163.8,0.33975,-1.88535,9.35498,2.5024,0.1221,0.4272,-349.0,-1.7,-163.8,387,252,18332,27.39
514,2026-03-06T18:44:29.043000,18:44:29.043,0.3876,1.75137,-9.36934,0.5493,-3.0518,0.4883,169.1,-1.6,-163.8,0.3876,-1.75137,9.36934,0.5493,3.0518,0.4883,-349.1,-1.6,-163.8,434,322,18349,27.33
515,2026-03-06T18:44:29.143000,18:44:29.143,0.52637,1.77529,-9.37412,0.8545,-0.6714,0.9155,169.2,-1.8,-163.9,0.52637,-1.77529,9.37412,0.8545,0.6714,0.9155,-349.2,-1.8,-163.9,403,323,18342,27.2
516,2026-03-06T18:44:29.243000,18:44:29.243,0.2584,1.66045,-9.46025,1.8311,-0.7324,-0.1221,169.3,-1.7,-164.0,0.2584,-1.66045,9.46025,1.8311,0.7324,-0.1221,-349.3,-1.7,-164.0,431,352,18362,27.14
517,2026-03-06T18:44:29.343000,18:44:29.343,0.41152,1.66045,-9.61816,-3.6011,2.2583,-0.7935,169.2,-1.6,-164.0,0.41152,-1.66045,9.61816,-3.6011,-2.2583,-0.7935,-349.2,-1.6,-164.0,447,338,18351,27.33
518,2026-03-06T18:44:29.443000,18:44:29.443,0.58379,1.65088,-9.84307,-2.0752,-5.4932,1.1597,169.3,-1.7,-164.0,0.58379,-1.65088,9.84307,-2.0752,5.4932,1.1597,-349.3,-1.7,-164.0,429,320,18353,27.33
519,2026-03-06T18:44:29.542000,18:44:29.542,0.1627,1.80879,-9.40283,-3.1738,-2.3804,1.8311,169.1,-1.2,-164.3,0.1627,-1.80879,9.40283,-3.1738,2.3804,1.8311,-349.1,-1.2,-164.3,541,286,18305,27.01
520,2026-03-06T18:44:29.642000,18:44:29.642,0.35889,1.76094,-9.42197,-4.1504,-5.9814,3.2959,169.0,-1.0,-164.4,0.35889,-1.76094,9.42197,-4.1504,5.9814,3.2959,-349.0,-1.0,-164.4,623,262,18299,27.2
521,2026-03-06T18:44:29.742000,18:44:29.742,0.39717,1.85664,-9.91963,4.2114,8.606,-0.2441,169.2,-1.3,-164.5,0.39717,-1.85664,9.91963,4.2114,-8.606,-0.2441,-349.2,-1.3,-164.5,664,253,18328,27.01
522,2026-03-06T18:44:29.842000,18:44:29.842,0.02871,1.43076,-9.04873,-2.9297,6.897,-3.3569,169.5,-1.3,-164.3,0.02871,-1.43076,9.04873,-2.9297,-6.897,-3.3569,-349.5,-1.3,-164.3,611,338,18330,27.33
523,2026-03-06T18:44:29.941000,18:44:29.941,0.66514,1.79922,-9.42197,-4.0894,-2.6855,1.8311,169.4,-1.9,-164.0,0.66514,-1.79922,9.42197,-4.0894,2.6855,1.8311,-349.4,-1.9,-164.0,449,304,18352,27.52
524,2026-03-06T18:44:30.041000,18:44:30.041,0.74648,2.0002,-9.9627,3.418,5.9814,0.4883,169.3,-2.6,-164.1,0.74648,-2.0002,9.9627,3.418,-5.9814,0.4883,-349.3,-2.6,-164.1,306,256,18375,27.27
525,2026-03-06T18:44:30.141000,18:44:30.141,0.24883,1.60303,-8.80947,-3.1738,1.6479,0.8545,169.1,-2.0,-164.2,0.24883,-1.60303,8.80947,-3.1738,-1.6479,0.8545,-349.1,-2.0,-164.2,316,236,18377,27.33
526,2026-03-06T18:44:30.240000,18:44:30.240,0.50244,1.67002,-9.64688,0.061,-4.7607,1.77,169.0,-2.2,-164.2,0.50244,-1.67002,9.64688,0.061,4.7607,1.77,-349.0,-2.2,-164.2,285,138,18389,27.39
527,2026-03-06T18:44:30.340000,18:44:30.340,0.57422,1.51689,-9.76172,-0.061,-1.6479,-0.3662,169.0,-2.5,-164.2,0.57422,-1.51689,9.76172,-0.061,1.6479,-0.3662,-349.0,-2.5,-164.2,275,120,18374,27.39
528,2026-03-06T18:44:30.440000,18:44:30.440,0.44502,1.09102,-9.35498,3.479,-0.4272,0.3052,169.4,-2.6,-164.3,0.44502,-1.09102,9.35498,3.479,0.4272,0.3052,-349.4,-2.6,-164.3,215,138,18376,27.14
529,2026-03-06T18:44:30.540000,18:44:30.540,0.49766,1.43076,-10.0249,-3.418,-4.6387,-0.7935,169.6,-2.5,-164.3,0.49766,-1.43076,10.0249,-3.418,4.6387,-0.7935,-349.6,-2.5,-164.3,196,206,18417,27.39
530,2026-03-06T18:44:30.640000,18:44:30.640,0.60771,1.09102,-9.69473,2.2583,-0.4883,-0.5493,169.7,-2.7,-164.2,0.60771,-1.09102,9.69473,2.2583,0.4883,-0.5493,-349.7,-2.7,-164.2,158,160,18397,27.33
531,2026-03-06T18:44:30.740000,18:44:30.740,0.3876,1.22979,-9.68994,-1.5259,-2.4414,-0.4272,169.9,-2.4,-164.3,0.3876,-1.22979,9.68994,-1.5259,2.4414,-0.4272,-349.9,-2.4,-164.3,181,191,18438,27.08
532,2026-03-06T18:44:30.839000,18:44:30.839,0.42588,1.05273,-9.88135,0.5493,-2.9907,0.7324,170.1,-2.3,-164.3,0.42588,-1.05273,9.88135,0.5493,2.9907,0.7324,-350.1,-2.3,-164.3,208,183,18426,27.46
533,2026-03-06T18:44:30.939000,18:44:30.939,0.42588,1.05752,-9.61816,1.4038,-1.709,-0.1221,170.4,-2.1,-164.4,0.42588,-1.05752,9.61816,1.4038,1.709,-0.1221,-350.4,-2.1,-164.4,259,160,18386,27.39
534,2026-03-06T18:44:31.039000,18:44:31.039,0.33018,1.02402,-9.55596,0.8545,1.8921,0.8545,170.8,-1.9,-164.5,0.33018,-1.02402,9.55596,0.8545,-1.8921,0.8545,-350.8,-1.9,-164.5,291,182,18397,27.27
535,2026-03-06T18:44:31.139000,18:44:31.139,0.40674,0.54072,-10.21631,3.9062,1.0986,-1.2207,171.1,-2.0,-164.4,0.40674,-0.54072,10.21631,3.9062,-1.0986,-1.2207,-351.1,-2.0,-164.4,309,202,18414,27.33
536,2026-03-06T18:44:31.239000,18:44:31.239,0.30146,-3.30654,-10.00576,20.1416,-14.1602,-6.2866,172.5,-1.4,-164.2,0.30146,3.30654,10.00576,20.1416,14.1602,-6.2866,-352.5,-1.4,-164.2,341,336,18498,27.2
537,2026-03-06T18:44:31.338000,18:44:31.338,-0.60293,-7.04375,-10.09668,65.1245,22.3999,0.6104,178.1,-1.9,-164.1,-0.60293,7.04375,10.09668,65.1245,-22.3999,0.6104,-358.1,-1.9,-164.1,401,1070,18628,27.46
538,2026-03-06T18:44:31.439000,18:44:31.439,-0.24883,-8.17783,-9.82393,1.6479,3.2349,-3.3569,-177.1,-4.5,-163.4,-0.24883,8.17783,9.82393,1.6479,-3.2349,-3.3569,-2.9,-4.5,-163.4,-246,2476,18813,27.27
539,2026-03-06T18:44:31.538000,18:44:31.538,1.07666,-8.53193,-10.60391,5.4932,6.4697,-1.0986,-175.9,-4.5,-163.3,1.07666,8.53193,10.60391,5.4932,-6.4697,-1.0986,-4.1,-4.5,-163.3,-543,2625,18902,27.39
540,2026-03-06T18:44:31.639000,18:44:31.639,-0.02393,-8.20654,-9.81436,-15.4419,-3.479,2.6245,-174.1,-3.8,-163.5,-0.02393,8.20654,9.81436,-15.4419,3.479,2.6245,-5.9,-3.8,-163.5,-551,2621,18900,27.2
541,2026-03-06T18:44:31.739000,18:44:31.739,0.55029,-6.6083,-9.57031,-22.4609,-1.1597,0.1831,-173.7,-4.3,-163.8,0.55029,6.6083,9.57031,-22.4609,1.1597,0.1831,-6.3,-4.3,-163.8,-626,2345,18897,27.27
542,2026-03-06T18:44:31.838000,18:44:31.838,0.54551,-5.94795,-10.40771,-16.9678,-7.0801,-2.5024,-174.3,-3.7,-163.5,0.54551,5.94795,10.40771,-16.9678,7.0801,-2.5024,-5.7,-3.7,-163.5,-635,1704,18845,27.46
543,2026-03-06T18:44:31.938000,18:44:31.938,0.23447,-6.30684,-10.62783,-5.7373,7.1411,-2.2583,-173.9,-4.0,-163.4,0.23447,6.30684,10.62783,-5.7373,-7.1411,-2.2583,-6.1,-4.0,-163.4,-598,1166,18808,27.14
544,2026-03-06T18:44:32.037000,18:44:32.037,0.6125,-5.82354,-11.15898,-8.1787,-0.1831,1.1597,-173.3,-3.8,-163.6,0.6125,5.82354,11.15898,-8.1787,0.1831,1.1597,-6.7,-3.8,-163.6,-666,896,18787,27.27
545,2026-03-06T18:44:32.137000,18:44:32.137,0.54072,-5.80439,-10.79053,-2.9907,-4.2725,0.3662,-172.5,-3.5,-163.6,0.54072,5.80439,10.79053,-2.9907,4.2725,0.3662,-7.5,-3.5,-163.6,-604,625,18650,27.33
546,2026-03-06T18:44:32.237000,18:44:32.237,0.3541,-5.5125,-10.7666,-1.4648,-6.2866,-0.4883,-171.7,-3.0,-163.6,0.3541,5.5125,10.7666,-1.4648,6.2866,-0.4883,-8.3,-3.0,-163.6,-459,453,18630,27.33
547,2026-03-06T18:44:32.337000,18:44:32.337,0.41152,-3.8042,-10.66133,-18.7378,6.958,2.6245,-171.3,-2.7,-163.8,0.41152,3.8042,10.66133,-18.7378,-6.958,2.6245,-8.7,-2.7,-163.8,-328,408,18724,27.33
548,2026-03-06T18:44:32.438000,18:44:32.438,0.92354,-1.46904,-10.08232,-1.8921,-8.4229,-4.3335,-172.0,-3.1,-163.7,0.92354,1.46904,10.08232,-1.8921,8.4229,-4.3335,-8.0,-3.1,-163.7,-470,91,18911,27.33
549,2026-03-06T18:44:32.537000,18:44:32.537,-0.06699,-0.95703,-10.38379,9.8267,0.6104,4.9438,-171.0,-2.3,-163.7,-0.06699,0.95703,10.38379,9.8267,-0.6104,4.9438,-9.0,-2.3,-163.7,-341,81,18948,27.46
550,2026-03-06T18:44:32.636000,18:44:32.636,1.25371,1.34941,-9.0918,6.2256,1.0986,4.5776,-170.5,-3.0,-164.6,1.25371,-1.34941,9.0918,6.2256,-1.0986,4.5776,-9.5,-3.0,-164.6,-409,274,18820,27.27
551,2026-03-06T18:44:32.736000,18:44:32.736,0.76562,2.91416,-9.80957,-3.0518,1.5869,1.709,-171.5,-2.7,-164.6,0.76562,-2.91416,9.80957,-3.0518,-1.5869,1.709,-8.5,-2.7,-164.6,-443,370,18731,27.52
552,2026-03-06T18:44:32.836000,18:44:32.836,1.30156,1.98584,-9.53682,2.8687,3.0518,2.3193,-172.4,-3.1,-165.1,1.30156,-1.98584,9.53682,2.8687,-3.0518,2.3193,-7.6,-3.1,-165.1,-503,405,18711,27.52
553,2026-03-06T18:44:32.936000,18:44:32.936,0.89482,2.03848,-9.61338,-3.0518,-5.6763,-0.7935,-173.2,-2.8,-165.0,0.89482,-2.03848,9.61338,-3.0518,5.6763,-0.7935,-6.8,-2.8,-165.0,-488,512,18654,27.52
554,2026-03-06T18:44:33.036000,18:44:33.036,0.97139,2.18203,-9.3502,8.4229,-9.7046,-0.7324,-173.9,-2.6,-164.8,0.97139,-2.18203,9.3502,8.4229,9.7046,-0.7324,-6.1,-2.6,-164.8,-374,549,18621,27.33
555,2026-03-06T18:44:33.135000,18:44:33.135,0.27754,2.73232,-9.30234,3.2959,-0.2441,2.5024,-174.3,-1.9,-164.9,0.27754,-2.73232,9.30234,3.2959,0.2441,2.5024,-5.7,-1.9,-164.9,-118,769,18570,27.39
556,2026-03-06T18:44:33.235000,18:44:33.235,0.99531,4.36406,-9.26406,-4.7607,5.5542,7.2632,-175.9,-2.4,-165.4,0.99531,-4.36406,9.26406,-4.7607,-5.5542,7.2632,-4.1,-2.4,-165.4,-148,783,18404,27.46
557,2026-03-06T18:44:33.335000,18:44:33.335,1.70352,4.78994,-9.24492,-1.2207,1.9531,-1.8921,-177.7,-3.0,-166.0,1.70352,-4.78994,9.24492,-1.2207,-1.9531,-1.8921,-2.3,-3.0,-166.0,-289,656,18325,27.46
558,2026-03-06T18:44:33.435000,18:44:33.435,1.30156,2.65576,-8.97695,0.1831,-4.9438,-4.0894,-179.4,-3.1,-165.7,1.30156,-2.65576,8.97695,0.1831,4.9438,-4.0894,-0.6,-3.1,-165.7,-389,634,18401,27.39
559,2026-03-06T18:44:33.535000,18:44:33.535,0.58379,5.42158,-9.7665,-17.4561,14.4043,10.1318,179.2,-3.5,-166.3,0.58379,-5.42158,9.7665,-17.4561,-14.4043,10.1318,-359.2,-3.5,-166.3,-367,726,18537,27.33
560,2026-03-06T18:44:33.634000,18:44:33.634,1.93799,3.91904,-8.27354,7.9956,-3.6011,-4.8828,176.5,-4.5,-165.8,1.93799,-3.91904,8.27354,7.9956,3.6011,-4.8828,-356.5,-4.5,-165.8,-632,352,18454,27.39
561,2026-03-06T18:44:33.734000,18:44:33.734,1.03359,3.66543,-9.39326,1.5869,-2.5635,-2.3193,175.2,-4.1,-165.9,1.03359,-3.66543,9.39326,1.5869,2.5635,-2.3193,-355.2,-4.1,-165.9,-601,262,18437,27.39
562,2026-03-06T18:44:33.834000,18:44:33.834,1.01924,3.26826,-9.40762,0.0,-6.1035,0.6104,174.5,-3.8,-165.9,1.01924,-3.26826,9.40762,0.0,6.1035,0.6104,-354.5,-3.8,-165.9,-471,334,18492,27.39
563,2026-03-06T18:44:33.934000,18:44:33.934,0.79434,2.05762,-8.77119,6.3477,-7.1411,-2.5635,173.8,-3.5,-165.8,0.79434,-2.05762,8.77119,6.3477,7.1411,-2.5635,-353.8,-3.5,-165.8,-320,359,18499,27.39
564,2026-03-06T18:44:34.034000,18:44:34.034,0.62207,1.85186,-9.80957,0.9766,1.2817,0.3662,173.8,-3.2,-165.8,0.62207,-1.85186,9.80957,0.9766,-1.2817,0.3662,-353.8,-3.2,-165.8,-174,463,18484,27.52
565,2026-03-06T18:44:34.134000,18:44:34.134,1.08623,1.92363,-9.68994,-2.3193,3.479,-1.0376,173.3,-3.5,-165.8,1.08623,-1.92363,9.68994,-2.3193,-3.479,-1.0376,-353.3,-3.5,-165.8,-181,505,18500,27.27
566,2026-03-06T18:44:34.233000,18:44:34.233,1.18193,1.88057,-9.57031,5.7983,-1.4648,-0.4883,173.3,-4.2,-165.7,1.18193,-1.88057,9.57031,5.7983,1.4648,-0.4883,-353.3,-4.2,-165.7,-339,456,18463,27.46
567,2026-03-06T18:44:34.333000,18:44:34.333,0.55508,1.40684,-9.55596,-3.1738,-4.4556,-6.8359,173.3,-3.8,-165.2,0.55508,-1.40684,9.55596,-3.1738,4.4556,-6.8359,-353.3,-3.8,-165.2,-358,606,18570,27.33
568,2026-03-06T18:44:34.433000,18:44:34.433,0.61729,1.34463,-9.57031,2.7466,-1.1597,2.2583,173.2,-3.6,-165.1,0.61729,-1.34463,9.57031,2.7466,1.1597,2.2583,-353.2,-3.6,-165.1,-229,643,18576,27.39
569,2026-03-06T18:44:34.533000,18:44:34.533,0.79912,1.59824,-9.60859,-6.0425,-1.5869,-0.3662,172.8,-3.3,-165.2,0.79912,-1.59824,9.60859,-6.0425,1.5869,-0.3662,-352.8,-3.3,-165.2,-172,641,18555,27.33
570,2026-03-06T18:44:34.633000,18:44:34.633,0.69863,1.91885,-9.24014,-1.5869,1.0986,3.6621,172.4,-3.5,-165.2,0.69863,-1.91885,9.24014,-1.5869,-1.0986,3.6621,-352.4,-3.5,-165.2,-141,526,18544,27.27
571,2026-03-06T18:44:34.733000,18:44:34.733,1.13408,2.21553,-9.68994,0.0,0.8545,-3.418,172.0,-3.8,-165.4,1.13408,-2.21553,9.68994,0.0,-0.8545,-3.418,-352.0,-3.8,-165.4,-221,415,18497,27.39
572,2026-03-06T18:44:34.832000,18:44:34.832,0.69385,1.63652,-9.46025,2.9907,-1.3428,-0.7324,171.9,-3.7,-165.2,0.69385,-1.63652,9.46025,2.9907,1.3428,-0.7324,-351.9,-3.7,-165.2,-247,445,18502,27.52
573,2026-03-06T18:44:34.932000,18:44:34.932,0.55986,2.24902,-9.4124,-2.1973,-1.5869,1.0986,171.8,-3.6,-165.2,0.55986,-2.24902,9.4124,-2.1973,1.5869,1.0986,-351.8,-3.6,-165.2,-175,517,18540,27.52
574,2026-03-06T18:44:35.032000,18:44:35.032,1.1915,3.64629,-9.39326,-9.0942,11.1694,3.7231,170.9,-4.1,-165.5,1.1915,-3.64629,9.39326,-9.0942,-11.1694,3.7231,-350.9,-4.1,-165.5,-155,446,18501,27.46
575,2026-03-06T18:44:35.132000,18:44:35.132,1.77051,3.52188,-9.33105,-3.0518,-0.4883,-2.5024,169.8,-5.1,-165.4,1.77051,-3.52188,9.33105,-3.0518,0.4883,-2.5024,-349.8,-5.1,-165.4,-395,257,18402,27.46
576,2026-03-06T18:44:35.232000,18:44:35.232,0.89004,2.73711,-8.87168,4.1504,-7.9346,-0.6714,169.3,-4.6,-165.3,0.89004,-2.73711,8.87168,4.1504,7.9346,-0.6714,-349.3,-4.6,-165.3,-434,227,18525,27.46
577,2026-03-06T18:44:35.332000,18:44:35.332,0.41631,2.5457,-9.33105,-0.3052,-14.3433,2.8687,169.3,-3.5,-165.6,0.41631,-2.5457,9.33105,-0.3052,14.3433,2.8687,-349.3,-3.5,-165.6,-192,292,18503,27.39
578,2026-03-06T18:44:35.431000,18:44:35.431,0.64121,2.71318,-9.36934,6.2256,6.958,-2.9297,168.8,-3.0,-166.0,0.64121,-2.71318,9.36934,6.2256,-6.958,-2.9297,-348.8,-3.0,-166.0,138,261,18472,27.33
579,2026-03-06T18:44:35.532000,18:44:35.532,1.10059,1.46904,-9.56074,15.9302,7.6294,-2.9907,169.7,-4.0,-165.2,1.10059,-1.46904,9.56074,15.9302,-7.6294,-2.9907,-349.7,-4.0,-165.2,62,416,18474,27.27
580,2026-03-06T18:44:35.632000,18:44:35.632,0.54072,1.36855,-9.49854,0.4883,7.9956,-7.1411,170.2,-4.4,-165.1,0.54072,-1.36855,9.49854,0.4883,-7.9956,-7.1411,-350.2,-4.4,-165.1,-94,734,18601,27.46
581,2026-03-06T18:44:35.732000,18:44:35.732,0.81826,1.225,-9.87178,-3.6621,-9.9487,-0.7324,170.1,-4.3,-164.8,0.81826,-1.225,9.87178,-3.6621,9.9487,-0.7324,-350.1,-4.3,-164.8,-225,807,18736,27.46
582,2026-03-06T18:44:35.831000,18:44:35.831,0.89961,0.89004,-9.56553,9.0942,0.3662,-1.5869,170.5,-4.2,-164.7,0.89961,-0.89004,9.56553,9.0942,-0.3662,-1.5869,-350.5,-4.2,-164.7,-132,817,18752,27.46
583,2026-03-06T18:44:35.931000,18:44:35.931,0.7752,1.07188,-9.49375,-10.6812,1.8311,0.5493,170.7,-4.2,-164.8,0.7752,-1.07188,9.49375,-10.6812,-1.8311,0.5493,-350.7,-4.2,-164.8,-125,918,18753,27.46
584,2026-03-06T18:44:36.030000,18:44:36.030,0.59336,1.13887,-9.47939,-11.1694,-16.4185,-3.418,169.7,-3.7,-164.7,0.59336,-1.13887,9.47939,-11.1694,16.4185,-3.418,-349.7,-3.7,-164.7,-66,672,18707,27.33
585,2026-03-06T18:44:36.130000,18:44:36.130,0.11484,1.47383,-9.47939,8.4229,-18.9819,-3.7231,169.6,-2.0,-164.8,0.11484,-1.47383,9.47939,8.4229,18.9819,-3.7231,-349.6,-2.0,-164.8,279,445,18744,27.52
586,2026-03-06T18:44:36.230000,18:44:36.230,-0.1292,0.95225,-9.87656,8.7891,6.2866,-1.6479,171.0,-1.1,-164.8,-0.1292,-0.95225,9.87656,8.7891,-6.2866,-1.6479,-351.0,-1.1,-164.8,735,649,18706,27.52
587,2026-03-06T18:44:36.330000,18:44:36.330,0.68906,0.81348,-9.50332,-8.4839,23.7427,1.9531,171.3,-3.2,-164.6,0.68906,-0.81348,9.50332,-8.4839,-23.7427,1.9531,-351.3,-3.2,-164.6,517,847,18736,27.39
588,2026-03-06T18:44:36.430000,18:44:36.430,0.80869,0.78955,-9.8335,-19.7144,-1.6479,5.0049,170.6,-3.9,-164.9,0.80869,-0.78955,9.8335,-19.7144,1.6479,5.0049,-350.6,-3.9,-164.9,64,659,18687,27.52
589,2026-03-06T18:44:36.530000,18:44:36.530,0.8709,1.34463,-9.64688,-4.0894,6.7139,0.4883,169.4,-4.6,-164.8,0.8709,-1.34463,9.64688,-4.0894,-6.7139,0.4883,-349.4,-4.6,-164.8,-118,201,18626,27.46
590,2026-03-06T18:44:36.630000,18:44:36.630,1.01445,1.33027,-9.46504,-0.061,6.958,2.3193,169.5,-5.3,-164.9,1.01445,-1.33027,9.46504,-0.061,-6.958,2.3193,-349.5,-5.3,-164.9,-348,36,18635,27.52
591,2026-03-06T18:44:36.730000,18:44:36.730,1.0958,1.3877,-9.5751,2.1973,-4.2725,2.0752,169.8,-5.5,-165.1,1.0958,-1.3877,9.5751,2.1973,4.2725,2.0752,-349.8,-5.5,-165.1,-538,21,18651,27.27
592,2026-03-06T18:44:36.829000,18:44:36.829,1.03838,1.12451,-9.59902,5.7983,-6.2256,-1.8311,170.5,-5.2,-165.2,1.03838,-1.12451,9.59902,5.7983,6.2256,-1.8311,-350.5,-5.2,-165.2,-471,95,18673,27.46
593,2026-03-06T18:44:36.929000,18:44:36.929,0.91396,0.89004,-9.75215,4.2725,1.2817,-0.8545,171.4,-4.9,-165.1,0.91396,-0.89004,9.75215,4.2725,-1.2817,-0.8545,-351.4,-4.9,-165.1,-359,302,18667,27.52
594,2026-03-06T18:44:37.028000,18:44:37.028,1.01924,0.90918,-9.64209,-6.2256,2.4414,1.3428,171.3,-5.2,-165.0,1.01924,-0.90918,9.64209,-6.2256,-2.4414,1.3428,-351.3,-5.2,-165.0,-370,368,18658,27.58
595,2026-03-06T18:44:37.128000,18:44:37.128,0.80869,1.08145,-9.56553,0.6104,-3.1738,1.0986,171.2,-5.2,-165.1,0.80869,-1.08145,9.56553,0.6104,3.1738,1.0986,-351.2,-5.2,-165.1,-414,256,18670,27.39
596,2026-03-06T18:44:37.228000,18:44:37.228,0.72734,1.17236,-9.48418,-1.4038,-2.9907,2.4414,171.4,-5.1,-165.3,0.72734,-1.17236,9.48418,-1.4038,2.9907,2.4414,-351.4,-5.1,-165.3,-405,244,18682,27.46
597,2026-03-06T18:44:37.328000,18:44:37.328,0.6125,1.13887,-9.73301,-6.2866,2.2583,-0.1221,171.2,-4.9,-165.5,0.6125,-1.13887,9.73301,-6.2866,-2.2583,-0.1221,-351.2,-4.9,-165.5,-337,225,18672,27.52
598,2026-03-06T18:44:37.428000,18:44:37.428,0.87568,1.43076,-9.43154,-7.2021,2.5635,0.3662,170.7,-5.3,-165.5,0.87568,-1.43076,9.43154,-7.2021,-2.5635,0.3662,-350.7,-5.3,-165.5,-401,77,18646,27.39
599,2026-03-06T18:44:37.528000,18:44:37.528,0.77041,1.51211,-9.7043,2.2583,-4.0283,2.0142,170.5,-4.9,-165.7,0.77041,-1.51211,9.7043,2.2583,4.0283,2.0142,-350.5,-4.9,-165.7,-455,-93,18596,27.33
600,2026-03-06T18:44:37.627000,18:44:37.627,0.89482,1.24893,-9.66123,2.8687,1.4038,2.8687,171.1,-5.1,-166.0,0.89482,-1.24893,9.66123,2.8687,-1.4038,2.8687,-351.1,-5.1,-166.0,-396,-30,18650,27.39
601,2026-03-06T18:44:37.727000,18:44:37.727,0.95225,1.22021,-9.48418,1.8921,2.5635,2.1973,171.3,-5.2,-166.2,0.95225,-1.22021,9.48418,1.8921,-2.5635,2.1973,-351.3,-5.2,-166.2,-441,33,18711,27.58
602,2026-03-06T18:44:37.828000,18:44:37.828,0.78477,0.86133,-9.82871,-2.5635,-2.0752,3.418,171.5,-5.1,-166.5,0.78477,-0.86133,9.82871,-2.5635,2.0752,3.418,-351.5,-5.1,-166.5,-459,93,18741,27.33
603,2026-03-06T18:44:37.927000,18:44:37.927,0.72734,0.58379,-9.59902,1.0986,-1.3428,3.8452,171.5,-5.1,-166.8,0.72734,-0.58379,9.59902,1.0986,1.3428,3.8452,-351.5,-5.1,-166.8,-462,84,18725,27.39
604,2026-03-06T18:44:38.027000,18:44:38.027,0.4833,0.27754,-9.79521,2.0752,-6.2866,1.8311,172.0,-4.6,-167.2,0.4833,-0.27754,9.79521,2.0752,6.2866,1.8311,-352.0,-4.6,-167.2,-447,92,18728,27.46
605,2026-03-06T18:44:38.127000,18:44:38.127,0.69863,0.08135,-9.72822,-1.2207,6.1646,4.3335,172.4,-4.7,-167.5,0.69863,-0.08135,9.72822,-1.2207,-6.1646,4.3335,-352.4,-4.7,-167.5,-363,152,18712,27.58
606,2026-03-06T18:44:38.226000,18:44:38.226,0.79912,-0.0957,-9.97227,0.9766,0.9766,3.7842,172.8,-5.1,-167.8,0.79912,0.0957,9.97227,0.9766,-0.9766,3.7842,-352.8,-5.1,-167.8,-486,143,18750,27.52
607,2026-03-06T18:44:38.326000,18:44:38.326,0.87568,-0.32539,-9.88613,0.6104,0.5493,3.479,173.2,-5.0,-168.1,0.87568,0.32539,9.88613,0.6104,-0.5493,3.479,-353.2,-5.0,-168.1,-585,110,18752,27.46
